timestamp,accel_x,accel_y,accel_z,gyro_x,gyro_y,gyro_z,object_id,org_id
2024-01-01 00:00:00.000,0.0004967141530112327,-0.0006784947304872218,1.000348286247667,-0.1980571967560407,-0.04718575483014012,0.009820614567905703,281474982487350,7002229
2024-01-01 00:00:00.010,-0.00013826430117118465,-0.0003054994630536529,1.0002833235925357,-0.1054985646936872,0.10127024710156002,-0.0064108228876603645,281474982487350,7002229
2024-01-01 00:00:00.020,0.0006476885381006925,-0.0005973810610451429,0.9990634801541945,-0.0587028406292586,-0.0198186847302318,0.0951790756019536,281474982487350,7002229
2024-01-01 00:00:00.030,0.0015230298564080254,0.00011041804694611957,1.0005795842217637,0.014966891092469146,0.00905692647176395,0.15328311414262208,281474982487350,7002229
2024-01-01 00:00:00.040,-0.00023415337472333598,0.0011971785314619128,0.9985099173244234,0.10241623266068783,0.07173906066377175,0.06868469441346166,281474982487350,7002229
2024-01-01 00:00:00.050,-0.00023413695694918056,-0.0007710421571412047,0.9993458156742396,0.06941359433717645,-0.005896340684894059,0.10115437511704631,281474982487350,7002229
2024-01-01 00:00:00.060,0.0015792128155073914,0.001000820497768414,0.9980009121871022,-0.11793247984474856,-0.1817847858329859,-0.021740423230641445,281474982487350,7002229
2024-01-01 00:00:00.070,0.0007674347291529088,-0.0007816720723468877,1.001558626516963,-0.03717122621656524,0.10405875045535476,0.012540480613913454,281474982487350,7002229
2024-01-01 00:00:00.080,-0.0004694743859349521,-0.0008476272124968842,0.9997684505060547,0.0076375588702566576,0.12549288299150516,0.148573207359964,281474982487350,7002229
2024-01-01 00:00:00.090,0.0005425600435859647,0.0008185946183432133,1.0021668840348164,-0.026220712444649942,-0.18311160916004435,0.05267114602582284,281474982487350,7002229
2024-01-01 00:00:00.100,-0.0004634176928124623,0.0009219363780076168,1.0008029499265194,-0.026929522586829437,-0.1043291205661538,-0.024202987576281563,281474982487350,7002229
2024-01-01 00:00:00.110,-0.0004657297535702569,0.0008514099367626543,1.000448098213351,-0.1722743324654272,0.2023879617485511,0.0032550554787375077,281474982487350,7002229
2024-01-01 00:00:00.120,0.00024196227156603412,-0.0013157974082181412,0.999413772305719,-0.11527341511396405,0.023203467850391193,0.10371512903045499,281474982487350,7002229
2024-01-01 00:00:00.130,-0.001913280244657798,-0.0004659509780720508,0.9989536499643126,-0.04029398491392733,0.00035512732703650183,0.11262270103241488,281474982487350,7002229
2024-01-01 00:00:00.140,-0.0017249178325130328,0.0008229885920033214,1.000522971573897,-0.30932256749451625,-0.042638340704957034,-0.08421311416197738,281474982487350,7002229
2024-01-01 00:00:00.150,-0.0005622875292409727,4.1541840563894606e-05,0.999928485990727,0.06406443200098545,-0.10307026508566344,0.036259127504687065,281474982487350,7002229
2024-01-01 00:00:00.160,-0.001012831120334424,-0.0010736928461974643,0.9986607296845147,-0.13726790997110697,-0.019441764230638352,-0.0007842842553311105,281474982487350,7002229
2024-01-01 00:00:00.170,0.0003142473325952739,0.0004583179391254417,0.9984831415834917,0.06868381332651378,0.09744227391657112,-0.006553584810370661,281474982487350,7002229
2024-01-01 00:00:00.180,-0.0009080240755212111,-0.0007148072589914702,0.9990412962708565,0.059891600447091,-0.0015677959380999227,0.13303079504307158,281474982487350,7002229
2024-01-01 00:00:00.190,-0.0014123037013352917,0.0017945248483922118,1.0018209672252663,-0.05436930431123843,0.061028408589304806,-0.023753813989392594,281474982487350,7002229
2024-01-01 00:00:00.200,0.001465648768921554,0.0015448414624182588,1.0022132779180113,0.10005483257015378,0.1765707148506563,-0.05755771032751217,281474982487350,7002229
2024-01-01 00:00:00.210,-0.00022577630048653565,0.0006040974263555674,1.0002049891473088,0.07431973449249332,-0.058047818044619295,-0.08149913043685142,281474982487350,7002229
2024-01-01 00:00:00.220,6.752820468792385e-05,0.0013610067047697737,1.0001489427962413,-0.03089614708346406,0.03028749006584417,-0.017454693120564455,281474982487350,7002229
2024-01-01 00:00:00.230,-0.0014247481862134568,6.479135012338109e-05,0.9996636796281705,-0.04217596151916984,0.10043935609356776,-0.07352462687781551,281474982487350,7002229
2024-01-01 00:00:00.240,-0.0005443827245251826,0.0007654374943750159,0.9990655146516905,0.10972327856643567,-0.09329036334665967,-0.08647817625390525,281474982487350,7002229
2024-01-01 00:00:00.250,0.00011092258970986608,0.001477720295302075,1.0013751790576073,0.02320138394076642,0.01780528280658048,-0.08899701256670944,281474982487350,7002229
2024-01-01 00:00:00.260,-0.0011509935774223028,0.0002454986817943127,1.001873576393897,0.10446971683681423,0.1872324524626361,-0.08305427041067993,281474982487350,7002229
2024-01-01 00:00:00.270,0.000375698018345672,-0.00025518717151428366,0.9991065809141607,-0.2388974074352737,-0.03402503804598156,-0.07608323890173406,281474982487350,7002229
2024-01-01 00:00:00.280,-0.0006006386899188049,-0.001704621958177116,0.9999171616215754,0.009848509701946213,0.10683465380037896,0.0399052721658541,281474982487350,7002229
2024-01-01 00:00:00.290,-0.00029169374979327677,-8.313352572149399e-05,0.9995501336992898,-0.1577409086969373,-0.01411368772097719,-0.1959982522607138,281474982487350,7002229
2024-01-01 00:00:00.300,-0.000601706612229397,0.0008234231845623113,0.999579760925135,-0.002578850748676315,0.17995870173169903,-0.07017532479835235,281474982487350,7002229
2024-01-01 00:00:00.310,0.0018522781845089378,0.0009456334275676296,1.00118590825543,0.07138202083458839,-0.16454678888371055,-0.010012990735823263,281474982487350,7002229
2024-01-01 00:00:00.320,-1.3497224737933914e-05,0.0005043650657184098,0.9986880384546338,0.1739140145749103,0.006495619101028412,0.1148624620178139,281474982487350,7002229
2024-01-01 00:00:00.330,-0.0010577109289559,-0.0005412990949622399,1.0004664696909362,-0.0938166728437186,-0.147885469514589,-0.024592703907658376,281474982487350,7002229
2024-01-01 00:00:00.340,0.000822544912103189,-0.0019768215689475906,1.000728238107306,-0.0525704805301983,-0.0700876816280894,-0.015332336788267393,281474982487350,7002229
2024-01-01 00:00:00.350,-0.0012208436499710222,-0.0004952150980047351,0.9998578488263982,-0.009553290707553756,-0.07068187852951947,-0.008794670397811996,281474982487350,7002229
2024-01-01 00:00:00.360,0.0002088635950047554,-0.0003043448710539514,1.0008930678269867,-0.09745311014618906,-0.02669563071338542,-0.18236876537777263,281474982487350,7002229
2024-01-01 00:00:00.370,-0.0019596701238797755,-0.00031292896719001414,1.0001476518405374,0.09785597287892572,-0.118829135069532,0.06590931009249315,281474982487350,7002229
2024-01-01 00:00:00.380,-0.0013281860488984305,0.0006185563569779245,1.001217129921156,-0.007009454536562352,-0.007173955755951213,0.06174215702113746,281474982487350,7002229
2024-01-01 00:00:00.390,0.00019686123586912352,0.0019856764110148394,0.9984777946950741,0.012195702337604607,0.04604665044811779,0.0814496159286673,281474982487350,7002229
2024-01-01 00:00:00.400,0.0007384665799954104,0.000123529201841093,0.9996512247389931,0.06201731267741587,-0.1531903132621566,0.250584805302829,281474982487350,7002229
2024-01-01 00:00:00.410,0.0001713682811899705,-0.00021673178915646165,0.999928186857149,-0.007171151637540941,-0.06349324900294716,-0.12985216029872101,281474982487350,7002229
2024-01-01 00:00:00.420,-0.00011564828238824053,-0.0002592218130040929,0.9973277926155286,-0.08175391281758652,0.2540992132763023,-0.14880266646056736,281474982487350,7002229
2024-01-01 00:00:00.430,-0.0003011036955892888,0.00012438476690771437,0.9989140472664214,-0.006302023829846699,0.032923713886584875,0.07058673145989883,281474982487350,7002229
2024-01-01 00:00:00.440,-0.0014785219903674274,-0.000828293760348399,0.9991864007456412,-0.08561813595133892,-0.18177412041817673,-0.03374891011856922,281474982487350,7002229
2024-01-01 00:00:00.450,-0.0007198442083947087,0.00012019855874605508,1.0009482059948234,0.010798088911648625,-0.14004658647597876,-0.09856282535369405,281474982487350,7002229
2024-01-01 00:00:00.460,-0.0004606387709597875,0.0004508123363317998,0.9992931566536853,0.09969377208017965,0.022590424537286075,-0.028256246782096945,281474982487350,7002229
2024-01-01 00:00:00.470,0.0010571222262189157,0.00020968606357448815,0.999181921012694,-0.11749782922723316,0.010066603857423757,-0.06183436250917212,281474982487350,7002229
2024-01-01 00:00:00.480,0.0003436182895684614,0.00045754193400478123,1.0008174857806562,-0.15323710014420924,-0.05874428017008801,0.1724777067797167,281474982487350,7002229
2024-01-01 00:00:00.490,-0.001763040155362734,0.0004337476093485353,0.9983820893542099,0.00492499359196741,0.21933149568879765,0.22618123040233018,281474982487350,7002229
2024-01-01 00:00:00.500,0.00032408396939479503,-0.0017718966822464438,0.9979287559325565,-0.0767799616743906,0.2618728820868654,-0.16355612913434658,281474982487350,7002229
2024-01-01 00:00:00.510,-0.00038508228041631655,0.0006368701583954032,0.9996384076999306,0.0031745274411968945,-0.02643833598497234,-0.14765488132666368,281474982487350,7002229
2024-01-01 00:00:00.520,-0.0006769220003059588,-0.0006710148456624536,0.9985522932319216,0.03204035206097008,0.08729568659267388,-0.07593680046319069,281474982487350,7002229
2024-01-01 00:00:00.530,0.0006116762888408679,-0.001095839163003958,0.9985903207053404,-0.21436862289285397,0.09231661713210025,-0.0689528041679012,281474982487350,7002229
2024-01-01 00:00:00.540,0.001030999522495951,-0.0011044518278549961,1.000573433791688,0.0689849427658542,0.10558731394775774,-0.0775260446698419,281474982487350,7002229
2024-01-01 00:00:00.550,0.0009312801191161986,0.0004335416104725293,1.0008759738379125,-0.1169668502955249,-0.06400853217739039,-0.019423417954351364,281474982487350,7002229
2024-01-01 00:00:00.560,-0.0008392175232226386,-0.00022257492722485293,1.0007888642158522,-0.0022347950564689917,0.19394492172205371,-0.044683480072194054,281474982487350,7002229
2024-01-01 00:00:00.570,-0.0003092123758512146,-0.0016819687839854105,1.0011087766603073,-0.06593823354384303,-0.006859719623440921,-0.1353612592895318,281474982487350,7002229
2024-01-01 00:00:00.580,0.00033126343140356396,0.0004780378151922834,1.0012411343200147,-0.05519570147842944,0.04219920810251112,-0.1026808240863981,281474982487350,7002229
2024-01-01 00:00:00.590,0.0009755451271223592,-0.001439608130798827,0.9978714097911731,0.16939579396179882,0.0002043510228310226,0.1546338832209564,281474982487350,7002229
2024-01-01 00:00:00.600,-0.00047917423784529,0.00013982135851821088,1.0004504119599296,0.031926752079566106,-0.013968617229875883,-0.03574482467346831,281474982487350,7002229
2024-01-01 00:00:00.610,-0.00018565897666381713,0.00023849892567305415,0.9994703918004304,0.0904688402953591,0.027840445993785996,-0.040863089162598905,281474982487350,7002229
2024-01-01 00:00:00.620,-0.0011063349740060282,0.000885577081695045,0.9992525757540096,0.015094135420274291,-0.1185885573793517,-0.15204371458274735,281474982487350,7002229
2024-01-01 00:00:00.630,-0.0011962066240806708,0.0017816847864668515,1.0005604146322087,0.06200135746549539,-0.19711530191736493,-0.04632167273041657,281474982487350,7002229
2024-01-01 00:00:00.640,0.000812525822394198,-0.0013646763259005418,0.9982697045201042,0.041737836214345195,-0.021338047601372666,0.09609024295675826,281474982487350,7002229
2024-01-01 00:00:00.650,0.0013562400285708229,-5.247385606304944e-05,0.9982488913941276,0.025445614468682577,-0.08804276369232693,0.0595551478469406,281474982487350,7002229
2024-01-01 00:00:00.660,-7.201012158033385e-05,-0.00027633529504421736,1.0006335727440818,0.11071559091646799,0.054750367798664025,0.08110992979735565,281474982487350,7002229
2024-01-01 00:00:00.670,0.001003532897892024,0.0004337496859609623,1.000487786017511,0.015650545384427013,0.04337901587116489,-0.120359707607633,281474982487350,7002229
2024-01-01 00:00:00.680,0.00036163602504763414,0.00021566877093361872,1.0001367326558714,0.22851485722177053,0.0013480019696702056,-0.12196176834038477,281474982487350,7002229
2024-01-01 00:00:00.690,-0.0006451197546051243,-0.00035254624273662016,0.9991200865952768,0.09605315728124379,0.1481574790554385,0.11334357221740538,281474982487350,7002229
2024-01-01 00:00:00.700,0.00036139560550841395,-0.00044090218861085557,1.000743829634582,-0.11395406977396899,-0.0006227678862969813,0.08262741398677673,281474982487350,7002229
2024-01-01 00:00:00.710,0.0015380365664659692,-0.0011164508551840477,1.0006803028920606,-0.017654970898298233,-0.14581508429458964,-0.025846276181564737,281474982487350,7002229
2024-01-01 00:00:00.720,-3.582603910995153e-05,0.0009878615824065096,1.0000853045150475,0.039707759949066834,-0.022364424165441578,0.08530402684490773,281474982487350,7002229
2024-01-01 00:00:00.730,0.001564643655814006,0.00045920418159952936,0.9988226789587302,0.004449683571203692,0.11709677668550099,-0.1202996372253789,281474982487350,7002229
2024-01-01 00:00:00.740,-0.0026197451040897443,0.0009177681977951373,0.9995747516542705,0.0686873418972168,-0.1884254672960543,-0.12444681077974651,281474982487350,7002229
2024-01-01 00:00:00.750,0.0008219025043752239,-0.00031039613647551367,1.0008378336775245,0.07970167048338736,-0.009403632704997639,-0.16174611525147237,281474982487350,7002229
2024-01-01 00:00:00.760,8.704706823817133e-05,-0.0006568354686944304,1.001327191222802,-0.13595869857989648,0.057546203455895534,0.03614704330036452,281474982487350,7002229
2024-01-01 00:00:00.770,-0.00029900735046586787,-0.0010783150666292278,0.9996734633966237,0.12810775447164946,0.26522423345277835,0.021671787443806698,281474982487350,7002229
2024-01-01 00:00:00.780,9.17607765355023e-05,0.00035891758374065954,0.9997503270321917,-0.04968174654860444,0.1208257636927606,-0.05224165201809564,281474982487350,7002229
2024-01-01 00:00:00.790,-0.0019875689146008927,-0.0010397932245282346,0.999838310891975,-0.05959045058647572,0.013261638336448568,-0.07803926096115113,281474982487350,7002229
2024-01-01 00:00:00.800,-0.00021967188783751193,0.0018486630689665503,1.000274893008911,-0.05991223927055405,0.052075922634694696,0.2414548603862906,281474982487350,7002229
2024-01-01 00:00:00.810,0.00035711257151174643,-0.0013076425810934404,0.99941893269994,0.08085764059905831,-0.18976953602849259,-0.02591309935883875,281474982487350,7002229
2024-01-01 00:00:00.820,0.001477894044741516,0.0002736601192125019,0.9971058149424284,-0.026706769814778604,-0.10497221859059624,0.13880670145339766,281474982487350,7002229
2024-01-01 00:00:00.830,-0.0005182702182736473,0.0015668547072137861,1.001192769001647,-0.06635516443377075,0.06509556711106305,-0.014634843444948118,281474982487350,7002229
2024-01-01 00:00:00.840,-0.0008084936028931876,0.0005990897592638091,1.0017946889471625,-0.042395915744353724,0.0161167396656318,-0.050071270778866556,281474982487350,7002229
2024-01-01 00:00:00.850,-0.0005017570435845365,0.00017567371249177933,0.9993876001403943,-0.1794691658915877,0.028874118659739295,0.14166595098063903,281474982487350,7002229
2024-01-01 00:00:00.860,0.0009154021177020742,-0.0009684836469618956,0.9989333466310812,-0.08421637639514869,0.0034114653677361087,0.07899641204159968,281474982487350,7002229
2024-01-01 00:00:00.870,0.00032875110965968445,-0.001381769188567704,0.9998628994776098,-0.12395835486530996,-0.0005090897581514399,-0.0024109022997649953,281474982487350,7002229
2024-01-01 00:00:00.880,-0.0005297602037670388,0.0007700501089175859,0.9998124961162712,-0.02691693304958912,0.010293064847879733,0.11337141117526117,281474982487350,7002229
2024-01-01 00:00:00.890,0.0005132674331133561,0.0015061472407749466,1.000995518577163,0.06641932702735924,-0.10560351842648052,0.2520306516175237,281474982487350,7002229
2024-01-01 00:00:00.900,9.707754934804038e-05,-0.0004388499904781715,1.000054639441645,0.055387590093322704,-0.022892697234493244,-0.07323533665221554,281474982487350,7002229
2024-01-01 00:00:00.910,0.0009686449905328893,-0.001139061507616351,0.9992073771696288,0.12567504975465832,-0.12441046314288416,0.047173664674525134,281474982487350,7002229
2024-01-01 00:00:00.920,-0.0007020530938773524,-0.0024581694305490184,0.9986815905494419,0.10339758172966207,-0.061959645673824115,-0.040921016374174765,281474982487350,7002229
2024-01-01 00:00:00.930,-0.0003276621465977682,-0.0009807648436625377,1.0008656341848197,-0.05285967149183771,0.11959050092045331,-0.09345410207683023,281474982487350,7002229
2024-01-01 00:00:00.940,-0.0003921081531321576,-0.00011365684249904019,1.0005995112411643,0.0019071400753713184,-0.018075231049756352,-0.09622667861161331,281474982487350,7002229
2024-01-01 00:00:00.950,-0.0014635149481321186,0.0015991232408367343,1.0010605598780917,-0.003255609422141859,0.0595839475280808,0.15923331460185985,281474982487350,7002229
2024-01-01 00:00:00.960,0.00029612027706457607,0.0006731336922329685,0.9990318132492789,-0.2151052682721887,0.011529455411255015,-0.18247606073063455,281474982487350,7002229
2024-01-01 00:00:00.970,0.00026105527217988936,0.000305085404706753,1.0018384368995283,-0.12172595369097444,-0.038489166689327475,0.050785935846679564,281474982487350,7002229
2024-01-01 00:00:00.980,5.113456642460901e-06,-0.000400119661301131,0.9982563054929428,-0.01672866771511124,-0.10085687066084233,-0.08252430776202341,281474982487350,7002229
2024-01-01 00:00:00.990,-0.00023458713337514743,-0.0005831657172559563,1.0007096010214014,-0.01728964351408084,-0.040005565240935806,0.17724949515679936,281474982487350,7002229
2024-01-01 00:00:01.000,-0.0014153707420504142,0.0014056475975079636,0.9980904172328031,0.051232505420516695,0.01831784459805245,-0.027307664893432722,281474982487350,7002229
2024-01-01 00:00:01.010,-0.00042064532276535907,0.00020073854075838948,0.9992096686183015,0.0463641629535848,0.058015344412425986,-0.036400767328226606,281474982487350,7002229
2024-01-01 00:00:01.020,-0.0003427145165267695,-0.0021026006919210223,1.001561022930448,-0.17706925020997355,0.012233686455728622,0.15695093044942368,281474982487350,7002229
2024-01-01 00:00:01.030,-0.000802277269221619,-0.0006735396478972428,1.000831364254476,0.05185967344575301,0.0649480317945711,0.08768000823122145,281474982487350,7002229
2024-01-01 00:00:01.040,-0.00016128571166600913,-0.0008582160317716267,0.9994537795845129,0.017858720645376372,-0.15201701025597064,0.05542269843626707,281474982487350,7002229
2024-01-01 00:00:01.050,0.0004040508568145384,-0.0005462640091774649,0.9994811629571783,0.06233731816446291,0.08666625575835019,0.08058119555057841,281474982487350,7002229
2024-01-01 00:00:01.060,0.0018861859012105303,0.0005629106602850852,1.0001006221108355,0.10668655876415895,-0.1128256340701953,-0.1083273588765743,281474982487350,7002229
2024-01-01 00:00:01.070,0.00017457781283183895,-0.0001074448817942494,1.0005141409907607,-0.014288297278797175,0.09835046171580213,0.07417132055381365,281474982487350,7002229
2024-01-01 00:00:01.080,0.000257550390722764,-7.686540700366203e-05,1.0012515793826826,0.12455882369800797,0.05024058434128431,-0.019905421417501803,281474982487350,7002229
2024-01-01 00:00:01.090,-7.44459157661671e-05,0.0013134731613252367,0.9995437659953915,-0.08894004538930467,-0.18701895621449663,0.036092469916225944,281474982487350,7002229
2024-01-01 00:00:01.100,-0.0019187712152990415,-0.0006964610897866884,0.9983882149365128,-0.09457381203722186,0.07369628241849298,0.048455292626129166,281474982487350,7002229
2024-01-01 00:00:01.110,-2.6513875449216878e-05,0.0018641995258873497,1.0001569686270488,0.04287721901355412,0.09950973398329116,-0.11105090832073072,281474982487350,7002229
2024-01-01 00:00:01.120,6.023020994102644e-05,-0.0006713075913710861,0.9995425691624916,-0.03687675453051798,0.12578784603459056,0.059382259584082865,281474982487350,7002229
2024-01-01 00:00:01.130,0.0024632421124852863,8.919819661257138e-05,0.9986993662952516,0.02616325646189695,-0.07685982841060231,-0.018635728997137616,281474982487350,7002229
2024-01-01 00:00:01.140,-0.00019236096478112254,-0.00028120359540276723,1.0002976689153127,0.19929821198444916,0.01794108420705262,-0.12399214459768698,281474982487350,7002229
2024-01-01 00:00:01.150,0.00030154734233361246,0.0001234191335009612,0.9997868862459072,0.03934950735039757,0.06944493830487086,-0.014656580652904148,281474982487350,7002229
2024-01-01 00:00:01.160,-3.4711769705243315e-05,0.0004445919950731292,1.0003065122064698,0.02121695388641196,0.0736326867412079,0.002002511411517442,281474982487350,7002229
2024-01-01 00:00:01.170,-0.001168678037619532,0.00043383524008887677,0.9991055557998129,-0.08692203786518475,0.040952076186296864,0.059363189126796216,281474982487350,7002229
2024-01-01 00:00:01.180,0.0011428228145150205,-0.0007531173306205799,1.0004867105303255,-0.16999798066243466,-0.042663624345662225,-0.23882910378073513,281474982487350,7002229
2024-01-01 00:00:01.190,0.0007519330326867742,-0.0011229146774475707,0.998682901803245,-0.007254661527351065,0.09879437541091471,0.03881362298766596,281474982487350,7002229
2024-01-01 00:00:01.200,0.0007910319470430469,0.002503171790905711,0.9991722686103034,0.10668702466081964,0.09938199668145166,-0.05118600568353929,281474982487350,7002229
2024-01-01 00:00:01.210,-0.000909387454794739,-0.0004839843396005531,0.9997570857689128,-0.0322938007060674,-0.015427830609660251,0.0809873446410491,281474982487350,7002229
2024-01-01 00:00:01.220,0.0014027943109360993,0.0006992124386719866,1.0017418184149598,0.0401462499205369,-0.07835548040410614,-0.00018661462842343274,281474982487350,7002229
2024-01-01 00:00:01.230,-0.0014018510627922809,-0.001607641310523197,1.0007848253685485,0.14264972727185823,-0.07279033391981439,-0.033338150435494894,281474982487350,7002229
2024-01-01 00:00:01.240,0.0005868570938002703,-0.00027961271990467677,1.0010771925042679,0.140151631323036,0.13648177153322122,-0.017750039627626085,281474982487350,7002229
2024-01-01 00:00:01.250,0.0021904556258099785,-0.00012719938398244294,1.001417077033343,0.04288158876017825,0.09506783849184264,0.03334097421911105,281474982487350,7002229
2024-01-01 00:00:01.260,-0.0009905363251306884,0.00047281506992783253,1.0036028321358108,0.017010647865734287,-0.0020039782720029406,0.09079094076713538,281474982487350,7002229
2024-01-01 00:00:01.270,-0.000566297729602772,-0.002722454140991939,1.0000415890675585,-0.15186330490030758,-0.01991732075209966,-0.08911112976750593,281474982487350,7002229
2024-01-01 00:00:01.280,9.965136508764122e-05,0.00016614061307833065,1.0014204009231298,-0.06301946441769406,-0.17681867608556778,-0.03436598594323028,281474982487350,7002229
2024-01-01 00:00:01.290,-0.0005034756541161992,-0.0011497414553678928,1.001012635254402,-0.02807558080180731,-0.008440110437809184,0.14693460508186748,281474982487350,7002229
2024-01-01 00:00:01.300,-0.0015506634310661327,0.00032434571119492383,1.0009960325033076,-0.08523316114341523,-0.11911151545541741,-0.03611116932869676,281474982487350,7002229
2024-01-01 00:00:01.310,6.856297480602733e-05,-0.0010363291968381629,1.0017742396180402,0.02484532629527643,0.01589994764917582,0.03672497308152677,281474982487350,7002229
2024-01-01 00:00:01.320,-0.0010623037137261048,-0.0008554826959255813,0.9995806869690155,0.1911648183486101,0.11852472467614408,-0.12341919376862698,281474982487350,7002229
2024-01-01 00:00:01.330,0.0004735924306351816,-0.0002736276103932682,0.9995013149760636,0.15177615926616167,-0.09804515529724411,-0.17145072911634698,281474982487350,7002229
2024-01-01 00:00:01.340,-0.0009194242342338034,-0.0010523294696031954,1.000319765513482,0.024387986183120703,0.0238586760388034,-0.10402048650479628,281474982487350,7002229
2024-01-01 00:00:01.350,0.00154993440501754,-0.0004755344467353548,0.9998173002280781,0.07794340720248283,0.0997779762009926,-0.06898920560176784,281474982487350,7002229
2024-01-01 00:00:01.360,-0.0007832532923362371,-0.0011933757685433154,1.0003185008529982,-0.0728604315356119,0.022029539527225122,0.10399111640475828,281474982487350,7002229
2024-01-01 00:00:01.370,-0.0003220615162056756,-0.0018331704516987275,1.001562748785053,0.14640893506688016,-0.0523982961850257,0.11495262626873715,281474982487350,7002229
2024-01-01 00:00:01.380,0.0008135172173696697,0.0010179570524293596,0.9995218532772937,-0.15619665959451806,0.001038640527211344,-0.19253203068954514,281474982487350,7002229
2024-01-01 00:00:01.390,-0.0012308643164339553,-0.0012960486928239284,0.9996953210374062,0.09128281610861624,0.09572487122278768,-0.05412451392918616,281474982487350,7002229
2024-01-01 00:00:01.400,0.00022745993460412942,-0.00017868088760798355,1.0001743110035266,0.04955897101997747,0.026257785989744195,0.06977893970404843,281474982487350,7002229
2024-01-01 00:00:01.410,0.001307142754282428,0.0007528910814937849,0.9997716815739748,-0.07558593867544244,-0.00033705825603430356,-0.010535312443122464,281474982487350,7002229
2024-01-01 00:00:01.420,-0.0016074832345612275,-0.0006149441025160432,0.9980859941719865,-0.020878675673793777,0.11561431262116262,0.15045584658174269,281474982487350,7002229
2024-01-01 00:00:01.430,0.00018463385853230421,-0.0008251658997455379,0.999419872357301,-0.11342527031560595,0.051491786995042324,0.06735009421313022,281474982487350,7002229
2024-01-01 00:00:01.440,0.0002598827942484235,0.0002262380886674215,1.0006873732422374,-0.10916400478022321,-0.12029024289499468,-0.02676851042888155,281474982487350,7002229
2024-01-01 00:00:01.450,0.00078182287177731,0.001117933822727152,1.0014375467509327,-0.15910540006239302,0.0631412661981995,-0.01786693711290775,281474982487350,7002229
2024-01-01 00:00:01.460,-0.001236950710878082,-0.0011693152650864688,0.9988453814324623,0.07675139022007119,0.0949558754782266,-0.005678983260484654,281474982487350,7002229
2024-01-01 00:00:01.470,-0.0013204566130842763,-0.0001501478320174389,0.9988407176007692,0.12053449694266814,-0.1237316387087488,-0.08459573967609407,281474982487350,7002229
2024-01-01 00:00:01.480,0.0005219415656168977,-0.0017324945949673274,1.0000302338027174,-0.21618078638134264,-0.2268739495866622,0.09392141356494986,281474982487350,7002229
2024-01-01 00:00:01.490,0.0002969846732331861,-0.00039320100368219,0.9979244049351221,0.1838305516151506,-0.10419326687783514,0.07424288177415515,281474982487350,7002229
2024-01-01 00:00:01.500,0.00025049285034587667,3.420468453807545e-05,0.9995550297970128,-0.001200823663683976,-0.01024996876836148,0.045427076765243046,281474982487350,7002229
2024-01-01 00:00:01.510,0.0003464482094969759,-0.0008546246417550658,0.9982639579404486,0.02898532048768381,0.1009788345047935,0.02425746893569958,281474982487350,7002229
2024-01-01 00:00:01.520,-0.0006800247215784909,-0.0004569918338252315,1.0013690612998425,-0.14724128355850763,-0.08909520341831288,-0.10181977790330131,281474982487350,7002229
2024-01-01 00:00:01.530,0.00023225369716100357,-0.00140822676830745,0.9992306688456496,0.13208257501648651,0.055512026665446745,0.05041931991417489,281474982487350,7002229
2024-01-01 00:00:01.540,0.00029307247329868124,7.70786113814936e-05,1.001652834186339,0.020025009316683415,-0.2892381134781812,0.012910247266475128,281474982487350,7002229
2024-01-01 00:00:01.550,-0.0007143514180263679,0.0010556942488831496,1.0011135213534583,0.11388262397712992,0.018030672036008038,0.20022690949744137,281474982487350,7002229
2024-01-01 00:00:01.560,0.0018657745111447567,-0.0010971438697704636,0.9993536827023026,0.12208583206477436,-0.040674045388543,-0.12932910979146214,281474982487350,7002229
2024-01-01 00:00:01.570,0.0004738329209117875,-0.0006226717665523829,0.998928040363154,0.13348744227212703,0.20985987816393992,-0.07232953878892984,281474982487350,7002229
2024-01-01 00:00:01.580,-0.0011913034972026487,0.0005025462464541818,0.9998064542508324,-0.06482807758522029,-0.18920862872326547,-0.15866445571171658,281474982487350,7002229
2024-01-01 00:00:01.590,0.0006565536086338297,0.0012120907193227362,0.9998953533757418,-0.02079620078932045,-0.001450148280422892,-0.021801979176706926,281474982487350,7002229
2024-01-01 00:00:01.600,-0.0009746816702273215,-0.0014931898122089314,1.0003461469439523,-0.06117020747295147,-0.18982213516244115,-0.17408993679954932,281474982487350,7002229
2024-01-01 00:00:01.610,0.000787084603742452,-0.00016878473741594932,0.9992234567104699,0.08950964627412833,-0.05497077331624505,0.11855016361685766,281474982487350,7002229
2024-01-01 00:00:01.620,0.001158595579007404,0.000283130822319525,1.0007463948735222,0.033288922936374074,-0.17011549656039604,0.10922373088701676,281474982487350,7002229
2024-01-01 00:00:01.630,-0.0008206823183517104,-0.00010205639062884797,1.0002653280549998,0.1069144864013238,0.23007887400908278,-0.015963197839064334,281474982487350,7002229
2024-01-01 00:00:01.640,0.0009633761292443218,-0.002476792066877087,0.9996596048432841,0.11127388030572323,-0.03555478680609882,-0.10137217882303691,281474982487350,7002229
2024-01-01 00:00:01.650,0.00041278092693649833,0.0005010900093087719,0.9992879593445819,-0.1727259490938908,-0.021102949331001732,-0.152410254855926,281474982487350,7002229
2024-01-01 00:00:01.660,0.00082206015999449,0.0015193363510906442,0.9998151150169013,0.13507701305538725,-0.004273372510530358,-0.07038646146404065,281474982487350,7002229
2024-01-01 00:00:01.670,0.0018967929826539474,0.00011666175116950343,0.9991830987481725,0.09508609577657173,-0.11322767927875839,0.06253713723408304,281474982487350,7002229
2024-01-01 00:00:01.680,-0.0002453881160028705,-0.0010311060532942633,1.0000584386948836,-0.03692248831854973,0.10552387336607759,-0.07870526899898685,281474982487350,7002229
2024-01-01 00:00:01.690,-0.0007537361643574896,-0.0005131272463642831,1.0000854386852198,0.03497927665296287,0.06401941454863423,0.19085761760067194,281474982487350,7002229
2024-01-01 00:00:01.700,-0.0008895144296255233,0.001769913067655593,1.0002617072834763,-0.012366957158270403,0.09179383626717807,0.149069543989815,281474982487350,7002229
2024-01-01 00:00:01.710,-0.0008158102849654383,0.0009099625408605587,1.0017662424096718,0.0616055678631176,-0.12179618820362899,8.239434044365071e-05,281474982487350,7002229
2024-01-01 00:00:01.720,-7.710170941410411e-05,0.0006400266183843293,0.9998675552803005,-0.03713963807048764,0.11353152152440511,-0.04618682552018836,281474982487350,7002229
2024-01-01 00:00:01.730,0.0003411519748166435,0.00035641258353437605,1.0010045978671245,0.04789272411691076,0.10198412793263079,-0.05691958997464516,281474982487350,7002229
2024-01-01 00:00:01.740,0.00027669079933001907,-0.0006611371121909723,1.0002295873969758,0.0067305304659352,-0.023239303499081737,0.15983767605260096,281474982487350,7002229
2024-01-01 00:00:01.750,0.0008271832490360238,-0.00020057118065576856,0.9997617556981016,-0.043219390349530526,0.08950210755435642,-0.06566953315572904,281474982487350,7002229
2024-01-01 00:00:01.760,1.3001891877907019e-05,-7.79227356785159e-05,0.9998808407300488,0.019013624490205883,0.027267162329428742,0.09343689527333607,281474982487350,7002229
2024-01-01 00:00:01.770,0.0014535340771573168,0.0005495743160644443,0.9999411735908319,0.2706469573488758,-0.15939995321409758,0.002179221306830378,281474982487350,7002229
2024-01-01 00:00:01.780,-0.00026465683323795606,0.0015089188942669035,1.0002797677077282,-0.06855366298256818,-0.01828059019120402,0.07135622139241762,281474982487350,7002229
2024-01-01 00:00:01.790,0.002720169166589619,0.001118338136793128,0.999040679234781,-0.024994359126156922,-0.048151003777964746,-0.08203972915687643,281474982487350,7002229
2024-01-01 00:00:01.800,0.0006256673477650062,-0.0014193843557960407,0.9985346596165551,-0.06681123996330307,0.008541928804789434,-0.03329185955217283,281474982487350,7002229
2024-01-01 00:00:01.810,-0.0008571575564162826,0.00022399496890104873,1.0006542973934742,-0.05632163855275838,0.10211262877333081,-0.0024182519703662064,281474982487350,7002229
2024-01-01 00:00:01.820,-0.0010708924980611123,0.000736763345167897,1.0008981238325814,0.08157743533853581,-0.16413413355305456,-0.06313666176705683,281474982487350,7002229
2024-01-01 00:00:01.830,0.0004824724152431853,0.0006188603301446354,1.0007456358328028,0.07158824596360679,-0.04435779080404367,0.12492241693744977,281474982487350,7002229
2024-01-01 00:00:01.840,-0.00022346278532585085,-0.0006292337633874195,1.0001549720185565,-0.0005863503321309755,-0.082183743296134,-0.07643081296660398,281474982487350,7002229
2024-01-01 00:00:01.850,0.0007140004940920919,0.0029141092157683617,1.0007672246274533,0.1026296585269112,-0.07788913053107066,-0.05770321416101968,281474982487350,7002229
2024-01-01 00:00:01.860,0.00047323762457354484,-0.001277084562331119,1.0007134290260171,0.07934432954943102,-0.08231090488335677,0.13587000236279756,281474982487350,7002229
2024-01-01 00:00:01.870,-7.282891265687278e-05,-0.00108318844666605,1.000787629358955,-0.01623341860262142,0.006817035548043704,0.11649272367955031,281474982487350,7002229
2024-01-01 00:00:01.880,-0.000846793718068405,0.00023359508126157631,0.9991404591786579,-0.15338647417942064,0.052317545283733925,0.158797877232563,281474982487350,7002229
2024-01-01 00:00:01.890,-0.0015148472246858647,0.0021168030549638533,0.9989030482028454,0.08297830079490028,0.03483249588895255,-0.19082731640775344,281474982487350,7002229
2024-01-01 00:00:01.900,-0.0004465149520670211,-0.0008361948507041709,0.9996114307532478,0.01696646210019749,0.018566820755915633,0.02007227490418539,281474982487350,7002229
2024-01-01 00:00:01.910,0.0008563987943234723,-0.0002658283656469923,0.9999826158904573,0.0022223463700592008,0.06217444878256432,0.009028132463110586,281474982487350,7002229
2024-01-01 00:00:01.920,0.00021409374413020396,0.0010772936730156929,0.9997580788728677,-0.04660480200097155,0.23803261335103884,-0.05617328844458524,281474982487350,7002229
2024-01-01 00:00:01.930,-0.001245738778711988,-1.78621548877335e-05,0.9981233096686621,0.0744648949116316,0.013589141431388722,0.03244593898571548,281474982487350,7002229
2024-01-01 00:00:01.940,0.000173180925851182,-0.0003346038545302956,1.001721692612135,0.03484962524285009,0.10211384028132738,-0.03214417303508001,281474982487350,7002229
2024-01-01 00:00:01.950,0.0003853173797288368,0.0005656329018867198,0.9997259540111143,-0.023682804280229675,0.09641834345711871,0.01619922684028448,281474982487350,7002229
2024-01-01 00:00:01.960,-0.000883857436201133,0.0002725179902295931,1.000172704416577,-0.12254545472189116,0.17777941630306177,0.3401875562209925,281474982487350,7002229
2024-01-01 00:00:01.970,0.00015372510594552791,0.0010304387856367914,1.001244548990763,0.10679291018800763,0.056051886495007225,0.03171307641284577,281474982487350,7002229
2024-01-01 00:00:01.980,5.82087184459999e-05,0.0012914688890653635,0.9976550277304788,0.06049052231558771,-0.08443161809739344,0.035913159810288545,281474982487350,7002229
2024-01-01 00:00:01.990,-0.001142970297830623,0.0003070030600053617,0.9994883061280883,0.025540289994559567,0.030488192102187856,0.08212193350158413,281474982487350,7002229
2024-01-01 00:00:02.000,0.0003577873603482833,0.000291732725378309,0.9996128827264202,-0.2656773995113998,0.02511387434175476,0.018064453099631773,281474982487350,7002229
2024-01-01 00:00:02.010,0.0005607845263682344,0.00021411098228613353,0.9996636899545494,-0.0037894257116059885,0.08151826087877762,-0.10980326761600788,281474982487350,7002229
2024-01-01 00:00:02.020,0.001083051243175277,0.0004891305566492876,0.9998265134092861,-0.02412037034756634,-0.08733966694994214,-0.16467117291432723,281474982487350,7002229
2024-01-01 00:00:02.030,0.001053802052034903,5.517063787146392e-05,1.0014471347984448,-0.06184956850543406,0.12663210739596187,-0.0029291062701908414,281474982487350,7002229
2024-01-01 00:00:02.040,-0.001377669367957091,-6.084823222894504e-07,1.0006734588757271,0.07542352785642843,0.0005237149140119963,-0.026911102837327845,281474982487350,7002229
2024-01-01 00:00:02.050,-0.0009378250399151228,0.0011966271208272423,1.000958035268629,0.07148600341672774,0.0839379253931732,-0.19636020827816722,281474982487350,7002229
2024-01-01 00:00:02.060,0.0005150352672086598,0.0015161161803550433,1.0000471202718109,0.04368247171923878,0.030967315807363283,0.16293927516227863,281474982487350,7002229
2024-01-01 00:00:02.070,0.0005137859509122088,-0.0015075529446334209,0.9986006269538545,0.10378909147677423,0.012259077832000215,0.010700304336551121,281474982487350,7002229
2024-01-01 00:00:02.080,0.0005150476863060478,1.0021151740569072e-05,0.997920302964854,-0.10222985140338425,0.02338564104837705,0.14394363546644237,281474982487350,7002229
2024-01-01 00:00:02.090,0.0038527314906547207,-0.0006886944334452348,0.9984705922767684,-0.04536540567693067,0.06719920113812232,-0.22318622840921623,281474982487350,7002229
2024-01-01 00:00:02.100,0.000570890510693167,-0.0003109714664860723,1.000359765704166,0.0074792263185805815,0.1958654794071419,0.1458487055755726,281474982487350,7002229
2024-01-01 00:00:02.110,0.001135565640180599,0.00040251620973532146,1.0000317697126977,-0.06220020192279152,-0.20173773848289545,-0.048520507995040346,281474982487350,7002229
2024-01-01 00:00:02.120,0.0009540017634932024,0.0006694383715424684,0.999789836352444,0.07271692217035422,0.0540002948924055,0.12591578818500768,281474982487350,7002229
2024-01-01 00:00:02.130,0.000651391251305798,-0.0001121264436113449,0.9996314230932599,-0.052220084813169525,0.004396779600074701,0.02148684738096505,281474982487350,7002229
2024-01-01 00:00:02.140,-0.00031526924464034554,-0.001913340334722803,1.0020117215754427,0.12983700044467547,-0.017710656720460443,0.04532565519196945,281474982487350,7002229
2024-01-01 00:00:02.150,0.0007589692204932673,-0.0009650455805761797,0.9991770964090235,-0.09311594017501898,-0.2363278223127534,0.04545170402782952,281474982487350,7002229
2024-01-01 00:00:02.160,-0.0007728252145375718,0.000896499670200166,1.000927819456116,0.21319836495006173,0.058020768125501755,-0.04251376981115223,281474982487350,7002229
2024-01-01 00:00:02.170,-0.00023681860674000887,-0.002740426422034931,1.000001912936021,0.2029297355602423,-0.012497063688131374,-0.06465147368694549,281474982487350,7002229
2024-01-01 00:00:02.180,-0.0004853635478291035,0.0011874271516819999,0.999939060488214,-0.009475314631534462,-0.0834428467676373,-0.03611601894940772,281474982487350,7002229
2024-01-01 00:00:02.190,8.187413938632256e-05,0.0005212299906445413,1.0011766375486169,0.11461704509257485,0.004247997271748522,-0.14719092082993568,281474982487350,7002229
2024-01-01 00:00:02.200,0.0023146585666735087,0.0013161760815300222,1.0014625303826914,-0.040042806050860705,-0.029279023106488007,-0.04807103036934126,281474982487350,7002229
2024-01-01 00:00:02.210,-0.0018672651925917482,-0.00019856918688096044,0.9997604505431151,0.1013286498231345,-0.1742393167018158,-0.06967914537436412,281474982487350,7002229
2024-01-01 00:00:02.220,0.0006862601903745136,-0.002061405424022905,1.000799202719242,-0.01759783314567708,0.008818471915812538,-0.1495905352669589,281474982487350,7002229
2024-01-01 00:00:02.230,-0.001612715871189652,0.000430362641506498,1.00036389136215,-0.1285439898508484,0.0580073529700014,0.04586662757192741,281474982487350,7002229
2024-01-01 00:00:02.240,-0.00047193186578943356,0.0012746531240383412,1.00000743713881,-0.3532818187678899,-0.05492334146807265,0.0007717431932776087,281474982487350,7002229
2024-01-01 00:00:02.250,0.0010889505969673664,0.000924721805513421,1.000204254942657,-0.02687134460706104,0.02617128326851234,0.02460423233171474,281474982487350,7002229
2024-01-01 00:00:02.260,6.428001909546277e-05,-0.0006626914834880354,0.9993119911851551,0.027906250868529266,0.0108111974560164,0.06974507914617836,281474982487350,7002229
2024-01-01 00:00:02.270,-0.001077744777929306,8.67610754626467e-05,0.999693900606669,0.13303164260362166,0.10454922225707755,-0.02378600572213941,281474982487350,7002229
2024-01-01 00:00:02.280,-0.0007153037092599683,-0.0005328362687799237,0.9994193647202473,0.0036625032151390473,-0.010369239366867395,-0.09387164132901074,281474982487350,7002229
2024-01-01 00:00:02.290,0.0006795977489346759,-0.0008192664641893718,1.000901376716429,0.1002910134717589,0.08010918391602304,0.030394202330746408,281474982487350,7002229
2024-01-01 00:00:02.300,-0.0007303666317171367,0.000955388571179851,0.9999047988844589,-0.04539415472215266,-0.031335275581885806,-0.2922196609040847,281474982487350,7002229
2024-01-01 00:00:02.310,0.00021645858958197487,-0.0011975323112651621,0.9987022859753849,-0.03372789695314451,0.19673219614951887,-0.010809509148721107,281474982487350,7002229
2024-01-01 00:00:02.320,4.557183990381377e-05,-0.0008938164305816127,0.999276562776837,0.10540356825285856,-0.04368415986398876,0.07651686233727968,281474982487350,7002229
2024-01-01 00:00:02.330,-0.0006516003476058169,-0.0011040256334723855,0.9968007353547879,-0.2464674484669272,-0.06849991243323018,0.10469252624096224,281474982487350,7002229
2024-01-01 00:00:02.340,0.002143944089325326,-0.0014902475232990468,0.9995055073981178,0.0012983828902915838,-0.01004921194439378,-0.05294432228770973,281474982487350,7002229
2024-01-01 00:00:02.350,0.0006339190223180112,0.00014641429184260343,1.0000376450650972,-0.039996134955586495,-0.0728018905510573,-0.22413872317092898,281474982487350,7002229
2024-01-01 00:00:02.360,-0.002025142586657607,0.001161503048481976,0.999863864151133,0.13606112048522842,-0.12486564338938347,-0.26332658600253345,281474982487350,7002229
2024-01-01 00:00:02.370,0.00018645431476942766,-0.00018487675624526565,1.0019801543515314,-0.052824629497982,0.07276023542578748,0.06380521068863729,281474982487350,7002229
2024-01-01 00:00:02.380,-0.000661786464768388,-0.0015057478005641666,1.000574906040915,0.05165849695700943,-0.30626487136846986,-0.035398306310654146,281474982487350,7002229
2024-01-01 00:00:02.390,0.0008524333347962239,0.0008399445397420276,1.000530451853089,0.09215169693346942,-0.07175333559993947,0.20172990753032913,281474982487350,7002229
2024-01-01 00:00:02.400,-0.0007925207384327006,0.0016857017540349716,0.9983567309654298,-0.14925959941304104,-0.13417639145517532,-0.14111036349154973,281474982487350,7002229
2024-01-01 00:00:02.410,-0.00011473644146689901,-0.0006462423241465945,0.9996353579458829,-0.013937030827390118,0.014216940019386184,0.03423359033252692,281474982487350,7002229
2024-01-01 00:00:02.420,0.0005049872789804572,-0.0004785542667177183,0.9995133371926763,-0.0431636434085938,-0.21891156697312014,0.16623516352625511,281474982487350,7002229
2024-01-01 00:00:02.430,0.0008657551941701214,0.0005156606300833942,0.999213918801192,0.09462932468295944,0.054785084494492056,0.02064619297772781,281474982487350,7002229
2024-01-01 00:00:02.440,-0.0012002964070557762,0.0016218737477850513,0.9992001193344866,0.06750818408121938,0.06560899268275225,-0.15919351916911986,281474982487350,7002229
2024-01-01 00:00:02.450,-0.0003345012358409484,-0.0005198341457252261,0.9981918770460584,-0.02332020300591821,-0.16326180452350747,0.2772611283105619,281474982487350,7002229
2024-01-01 00:00:02.460,-0.00047494531116095616,-0.001332449780998205,0.9987241467953186,-0.1047408050416052,0.0190602702832918,0.15805874570461845,281474982487350,7002229
2024-01-01 00:00:02.470,-0.0006533292325737119,0.0006314186062724064,1.000874093402765,0.10381466960200902,0.05160592838201955,-0.02272460158917491,281474982487350,7002229
2024-01-01 00:00:02.480,0.001765454240281097,0.0007990680731422993,0.9998570853080068,-0.0067652776598781566,0.09403003744161881,0.08189540775509621,281474982487350,7002229
2024-01-01 00:00:02.490,0.00040498171096095553,6.131450435226853e-06,0.9994935975817256,-0.16183765656674623,-0.14689293366164619,0.08296611600689695,281474982487350,7002229
2024-01-01 00:00:02.500,-0.0012608839543350452,-0.0005581332596574506,0.9999945886653473,-0.1532380398969924,-0.16095946425032448,0.06417710848659584,281474982487350,7002229
2024-01-01 00:00:02.510,0.0009178619470547761,0.0009943787309920464,1.001167390678701,0.043763343007297645,0.15026492216700915,-0.13817447747016157,281474982487350,7002229
2024-01-01 00:00:02.520,0.0021221561970126332,0.0005280360045479643,1.0000042105208757,-0.12758061927655187,-0.08218897053196193,0.03241576211196536,281474982487350,7002229
2024-01-01 00:00:02.530,0.0010324652605511468,-0.0007684355169034929,1.000540374130931,0.18596474936036136,-0.05274041750085541,0.14607157015924097,281474982487350,7002229
2024-01-01 00:00:02.540,-0.0015193699659540134,4.909473130567151e-05,0.9991533951576117,-0.09370702843593307,0.06330945237528773,0.05045272157507461,281474982487350,7002229
2024-01-01 00:00:02.550,-0.0004842340728662514,-0.0013517075320246467,0.9993813700492533,-3.6072535727616155e-05,-0.1169201023269481,0.03971510023075613,281474982487350,7002229
2024-01-01 00:00:02.560,0.0012669111491866228,0.0006858904564379199,1.0003539768850638,0.015911196616030545,-0.026584941308612567,-0.05368243691484346,281474982487350,7002229
2024-01-01 00:00:02.570,-0.0007076694656187808,-0.0002622335693828558,1.001892653708337,-0.07293777392368457,0.08917442927530579,-0.09039786705133979,281474982487350,7002229
2024-01-01 00:00:02.580,0.00044381942814622846,-0.0004357108323847371,1.001429774859515,-0.22398270305779688,-0.1421102217342521,-0.15725173863294914,281474982487350,7002229
2024-01-01 00:00:02.590,0.0007746340534293368,-3.287448515243416e-05,1.0005828280694562,0.019089509761622745,-0.050000432939550914,0.07574645979277007,281474982487350,7002229
2024-01-01 00:00:02.600,-0.000926930471578083,4.0307699330247823e-05,1.0001514337601607,-0.07532399901022582,-0.11267236199890954,-0.02208843335813096,281474982487350,7002229
2024-01-01 00:00:02.610,-5.9525356061800084e-05,0.0008949300615655605,1.0014010693556272,0.011653842761644315,-0.07739354188917355,-0.13413796115460683,281474982487350,7002229
2024-01-01 00:00:02.620,-0.0032412673400690727,0.0005910905313252215,1.000794678323045,-0.012233105223870895,0.11856485801306721,0.09764086665071289,281474982487350,7002229
2024-01-01 00:00:02.630,-0.0010243876413342898,-0.0001564092787928027,0.9977063379776293,0.02632912480718034,0.14050636339660671,-0.0586911079533224,281474982487350,7002229
2024-01-01 00:00:02.640,-0.0002525681513931603,0.0007636681497189952,0.9989460691521448,0.15618701206560598,0.025783412942546293,-0.0857864900241524,281474982487350,7002229
2024-01-01 00:00:02.650,-0.0012477831819648496,0.0004007372536916131,1.000338140325358,-0.05461830127271225,0.053220968462747244,-0.04962480137102755,281474982487350,7002229
2024-01-01 00:00:02.660,0.0016324113039316353,-0.0004265996362860371,0.998213032434449,-0.0468844654342496,0.05048549012340921,-0.019308925983970632,281474982487350,7002229
2024-01-01 00:00:02.670,-0.0014301413779606326,-0.0001247181582364859,0.9991024109952431,-0.166579730275389,-0.06723359760891787,0.045802207051486354,281474982487350,7002229
2024-01-01 00:00:02.680,-0.00044004448669698377,-0.0001482228888431208,0.999300185056342,-0.019518395109929466,0.023815050418350966,-0.08753135909893102,281474982487350,7002229
2024-01-01 00:00:02.690,0.00013074057728609134,0.0005052613431742017,0.9997438340937541,0.04098699892749663,-0.1295308390140593,0.10103738754932082,281474982487350,7002229
2024-01-01 00:00:02.700,0.0014412732890661155,-0.000367022614721642,0.9997125697917738,-0.048349487757102697,-0.09585694899146185,0.04842295883958547,281474982487350,7002229
2024-01-01 00:00:02.710,-0.0014358621511794394,-0.00039040918642163354,0.9997108795728332,0.041643050040549114,-0.00868015464107723,-0.05146627459590915,281474982487350,7002229
2024-01-01 00:00:02.720,0.0011631637521549597,0.0019687573094339587,1.0008253075172404,-0.01775085254891911,-0.1060970993647361,-0.01597898105732014,281474982487350,7002229
2024-01-01 00:00:02.730,1.023306101958705e-05,0.0009397354817471043,0.9997347761345494,-0.13022662379689898,-0.12727270831691984,-0.04226309440919011,281474982487350,7002229
2024-01-01 00:00:02.740,-0.0009815086510479509,-0.0007606006644251391,0.9996153698679288,0.03119850711831046,-0.07118978274569489,0.006586472883569609,281474982487350,7002229
2024-01-01 00:00:02.750,0.00046210347426327075,0.0005709409939421983,0.9986508278958565,-0.02058321335650172,0.11463337251918947,0.15198739664378963,281474982487350,7002229
2024-01-01 00:00:02.760,0.00019905969557347004,0.00011835006565517723,1.0010243462019859,0.012275782140935797,0.15571391538937163,-0.04329363185424697,281474982487350,7002229
2024-01-01 00:00:02.770,-0.0006002168771587947,0.00039155117526009384,0.9993285024860525,-0.05669498832104162,-0.0032560026954264205,0.018946582179288612,281474982487350,7002229
2024-01-01 00:00:02.780,6.980208499001885e-05,0.00013734132456510455,0.9989129696719987,-0.06554025229908948,0.05821989245448185,-0.06985827723146025,281474982487350,7002229
2024-01-01 00:00:02.790,-0.0003853135968617599,0.0011896426454852359,1.000213090574869,0.01574108075529652,-0.056349412214473905,0.05319550442029974,281474982487350,7002229
2024-01-01 00:00:02.800,0.00011351734525124799,0.0003456203446514459,0.9992330587376169,-0.02305999120421348,-0.20656467932195502,0.027640665351736305,281474982487350,7002229
2024-01-01 00:00:02.810,0.0006621306745210464,-6.20886982142874e-05,0.9994740472602057,0.17242782491692654,-0.08935224806350557,0.1329617788676159,281474982487350,7002229
2024-01-01 00:00:02.820,0.001586016816145352,0.0010421905769830173,1.000258460174319,0.07987305121611647,-0.030834403267420096,-0.0829190285663726,281474982487350,7002229
2024-01-01 00:00:02.830,-0.0012378154988268492,0.00023328504108787202,0.9996735173762205,0.05450042594676882,0.014096928199946533,0.06905753209497915,281474982487350,7002229
2024-01-01 00:00:02.840,0.002133033374656267,0.00012147857932905769,1.0023116093753006,-0.017748080150141447,-0.010097610491818542,0.126408355236845,281474982487350,7002229
2024-01-01 00:00:02.850,-0.001952087799522502,0.0003140226024861141,0.9999251714566808,-0.20260234484765094,-0.02816456145174668,-0.04376177357483338,281474982487350,7002229
2024-01-01 00:00:02.860,-0.00015178509503558326,-9.36090233663665e-05,1.0006178382188793,-0.0807594927617679,-0.05746330320054897,-0.012695359913496749,281474982487350,7002229
2024-01-01 00:00:02.870,0.0005883172064845762,9.226992995468901e-06,0.9980583059525071,-0.06472934525843181,0.03438625447122651,0.019073813341457132,281474982487350,7002229
2024-01-01 00:00:02.880,0.0002809918677350327,-0.0005866945887618727,0.9991393508680853,-0.0274984386289914,-0.1363891778373639,-0.023657866734445712,281474982487350,7002229
2024-01-01 00:00:02.890,-0.0006226995198205939,-0.0007511672196238788,0.9989130863050832,-0.0033359499389953706,0.08020627113314885,0.017731919608175547,281474982487350,7002229
2024-01-01 00:00:02.900,-0.00020812225035727534,-0.0009985703864824396,0.9990456202766974,0.06560749654854954,-0.05863508887664039,0.06734362294118096,281474982487350,7002229
2024-01-01 00:00:02.910,-0.0004930009346588331,-0.0013919832867970762,1.000415537993837,0.02731455610700651,0.2067098252693946,-0.011397606542572956,281474982487350,7002229
2024-01-01 00:00:02.920,-0.0005893647569442117,-0.0008797173613845565,1.0010355650677774,0.11592031914699048,-0.03153155397597164,-0.012179879680776232,281474982487350,7002229
2024-01-01 00:00:02.930,0.000849602097021025,-0.00017426703446692563,1.0003446305046344,-0.03119019735192496,-0.048017572337337985,0.026666179210974653,281474982487350,7002229
2024-01-01 00:00:02.940,0.00035701548596504736,0.00010311758244563702,0.9997733553764336,0.02571629441701617,-0.0562686189108905,-0.03991684022359678,281474982487350,7002229
2024-01-01 00:00:02.950,-0.0006929095952606543,-0.0002712965631476405,0.9993691449612876,0.03438442277788009,-0.04702026092221309,-0.034971326223429404,281474982487350,7002229
2024-01-01 00:00:02.960,0.0008995998754332507,-0.0023557034901273578,1.0011135997511864,0.024572628435858904,0.06072280584247324,-0.08988602879961305,281474982487350,7002229
2024-01-01 00:00:02.970,0.00030729952087660934,0.0015745863577623423,1.0020712554541549,0.12818902479401426,-0.0042276201390471805,-0.004214145257696848,281474982487350,7002229
2024-01-01 00:00:02.980,0.0008128621188389601,0.0010864801228903818,1.0001350557047837,0.08037743227471927,0.09870816659614927,0.04477498531214558,281474982487350,7002229
2024-01-01 00:00:02.990,0.0006296288419236122,0.0004457598512171287,1.0009393630640715,-0.13194032195014224,0.04644214669337795,-0.026913733956999787,281474982487350,7002229
2024-01-01 00:00:03.000,-0.0008289950109220725,0.001907490672553268,1.0003433703497955,-0.011433109905933991,0.0031492459483950896,-0.0773511049000758,281474982487350,7002229
2024-01-01 00:00:03.010,-0.0005601810401969696,-0.0009773641174837106,1.0007555049064656,-0.0013973682229795103,0.03729543355986578,-0.009621668128166411,281474982487350,7002229
2024-01-01 00:00:03.020,0.0007472936051232618,0.001887625120626005,0.9988354532218899,0.21515410636950058,0.11963468881637207,0.03970878435359598,281474982487350,7002229
2024-01-01 00:00:03.030,0.0006103702654334649,-0.000965214076750548,0.9995118637198579,-0.03297911812454699,0.06566959630509954,0.01279692903985908,281474982487350,7002229
2024-01-01 00:00:03.040,-2.090159396414813e-05,0.00023873792529135657,1.0003954694400456,-0.0982483903336182,0.028055699344054632,0.2229549972372279,281474982487350,7002229
2024-01-01 00:00:03.050,0.000117327383308782,-0.0012738373251342044,1.001212490944082,0.04383254294766438,0.042274255500859254,-0.0656415910373608,281474982487350,7002229
2024-01-01 00:00:03.060,0.001277664895788425,1.4694095544366793e-05,0.9991818657783623,0.04969857196237792,-0.11526848356518203,-0.015031689835994162,281474982487350,7002229
2024-01-01 00:00:03.070,-0.0005915713888358299,0.0003861664979983887,0.9979667008889599,-0.007377286372969208,0.2571696186254963,0.07792974653425291,281474982487350,7002229
2024-01-01 00:00:03.080,0.0005470973811700377,-0.0001546903311345547,0.9995017355735587,-0.022026100297089,0.05281257206311446,-0.06946798508770216,281474982487350,7002229
2024-01-01 00:00:03.090,-0.00020219265243389398,0.0007138774440901375,1.0010101307143482,0.09489039560620853,0.0627914692555004,0.19282188775333486,281474982487350,7002229
2024-01-01 00:00:03.100,-0.00021768120322722038,9.901444948725731e-05,0.9984161044089122,-0.08535981542598205,-0.0028692388044620014,0.00046160702602523606,281474982487350,7002229
2024-01-01 00:00:03.110,0.0010987768519871903,-0.0005224147283775093,0.9988230801078685,-0.03409533428685361,-0.22975681036844528,0.05611437877711567,281474982487350,7002229
2024-01-01 00:00:03.120,0.0008254163489880298,-0.0005668133178023393,1.0001559185860511,-0.05221498621133876,-0.026534358526405913,0.0019013635735873656,281474982487350,7002229
2024-01-01 00:00:03.130,0.0008135096360006386,0.0008109137726156967,0.9998840287472386,0.10938945976205881,0.007594713606131551,0.10186379447688926,281474982487350,7002229
2024-01-01 00:00:03.140,0.0013054788071543292,-0.0006537420298069675,1.0005944664815531,0.02854942032863437,-0.08228378218861798,-0.10628444993481122,281474982487350,7002229
2024-01-01 00:00:03.150,2.100384163275905e-05,0.0009154029704849369,0.9987712732395544,-0.10649940973212704,-0.08315532081341398,0.15718475276978364,281474982487350,7002229
2024-01-01 00:00:03.160,0.0006819529712949639,0.0012227117928319312,0.9996750214058313,-0.0964506393262769,-0.03392519625592835,0.023171880497355232,281474982487350,7002229
2024-01-01 00:00:03.170,-0.00031026675659345603,-0.00166871386234613,1.001195185402403,0.18734151236121513,0.07715288435480483,0.06584588768809459,281474982487350,7002229
2024-01-01 00:00:03.180,0.0003241663524884421,0.0011329263873010348,0.9988071038063632,0.108321774810704,0.1255754275040819,-0.07383753192298868,281474982487350,7002229
2024-01-01 00:00:03.190,-0.00013014305436768458,0.002060422698444699,1.0014769122963103,0.08415502815234793,0.01709629549396921,0.03372430137475276,281474982487350,7002229
2024-01-01 00:00:03.200,9.69959649927182e-05,0.00025200376120192847,0.9989325830141114,0.0012246940973342467,-0.05673787259009379,-0.09679899618118405,281474982487350,7002229
2024-01-01 00:00:03.210,0.0005951570254369137,0.0005990841852948223,1.0008493815773776,0.15084732401204093,-0.03623845401457781,0.11756444306427223,281474982487350,7002229
2024-01-01 00:00:03.220,-0.0008182206832334725,0.0010370053243691586,0.9996270414897869,-0.11034047859782586,0.009953400226004445,-0.12898084181248787,281474982487350,7002229
2024-01-01 00:00:03.230,0.0020923872756854604,-0.0002754823151790223,0.998855091742361,0.07529675122044906,0.02180301243425409,0.015417341781887925,281474982487350,7002229
2024-01-01 00:00:03.240,-0.001006017381499702,0.00018228022353786972,0.9995031009528474,-0.04432735065255634,0.04349591861740993,-0.038842611515448724,281474982487350,7002229
2024-01-01 00:00:03.250,-0.0012141886127877322,-0.0013141995296231093,1.000544929188179,-0.024889331965522968,-0.04393598839164679,-0.1562627887521989,281474982487350,7002229
2024-01-01 00:00:03.260,0.0011581108735000678,0.000138635028530451,0.9999931460050985,0.0725789264832387,0.05292911325047989,-0.09353587301463556,281474982487350,7002229
2024-01-01 00:00:03.270,0.0007916626939629359,0.0004981119956445415,1.0011184694114434,-0.01435575086815076,0.04502372347583441,0.044959372678447344,281474982487350,7002229
2024-01-01 00:00:03.280,0.0006241198170521551,0.0005161630229264694,1.0014357400609348,-0.0434699859461258,-0.03950927565391163,-0.08965569977442502,281474982487350,7002229
2024-01-01 00:00:03.290,0.0006283455092642799,0.0010654247235975804,0.9988169693346821,-0.049515764808792544,-0.17194910222429904,-0.06691705651441886,281474982487350,7002229
2024-01-01 00:00:03.300,-1.2246772846914623e-05,-0.0007748021781355291,0.9987437308550896,-0.19863457455111244,-0.08849366815319398,0.037334457284023785,281474982487350,7002229
2024-01-01 00:00:03.310,-0.0008972543714858316,-0.0005326067566734965,0.9986952062263792,0.07632036192756562,0.15675953261274023,0.09148415162344213,281474982487350,7002229
2024-01-01 00:00:03.320,7.580455819372634e-05,0.0018955073459913552,0.999100803903952,-0.10066300727987934,-0.16935715930484896,0.06607765209973608,281474982487350,7002229
2024-01-01 00:00:03.330,-0.0006771617115121117,-0.00015032837376370992,1.0011042145208198,0.18584094056592781,0.13175222419732222,-0.004657702407304274,281474982487350,7002229
2024-01-01 00:00:03.340,0.0009751197334177512,0.000200033787312328,1.0005603619506667,-0.02876125498149928,-0.17285809000329147,0.02176390641190103,281474982487350,7002229
2024-01-01 00:00:03.350,-0.00014705738150213866,-6.701004172522105e-05,0.9994549724270776,0.13094397974459576,-0.07731502270894816,0.011874575042916896,281474982487350,7002229
2024-01-01 00:00:03.360,-0.0008254971967925116,-0.0008216808263050224,0.9999888974093771,-0.18090310326826808,-0.037471898624521785,-0.10363559765470953,281474982487350,7002229
2024-01-01 00:00:03.370,-0.00032138584165299343,0.0016235292108918063,1.001404305505166,0.07314830211985988,0.17823030829531064,0.027943909071367026,281474982487350,7002229
2024-01-01 00:00:03.380,0.0004129314542756245,-0.0005277014119206057,1.001908010850979,0.09885557325118116,0.002613095770018069,-0.10452595479891898,281474982487350,7002229
2024-01-01 00:00:03.390,-0.0005637245528039749,-0.00112728552370693,1.0002593843334429,0.13035636343644338,-0.021400516076169662,0.06142761413413215,281474982487350,7002229
2024-01-01 00:00:03.400,-0.0008222203955664314,-0.0004507402773027516,0.9973407188159527,-0.15280387727866135,-0.09353460332270068,0.013513564044673347,281474982487350,7002229
2024-01-01 00:00:03.410,0.0002436872114919123,-0.0020017060017255336,1.00029728709476,-0.07027186370869291,0.05219609467559171,-0.2164200068206968,281474982487350,7002229
2024-01-01 00:00:03.420,0.00024496657110872276,-0.0006512874649831818,1.0009347481295414,0.05765099527560802,-0.05127184445709714,0.09791171774462315,281474982487350,7002229
2024-01-01 00:00:03.430,-0.0005069431753711298,-0.0009681285978523266,1.0002246323158561,0.01484419788441095,-0.02290038924435693,-0.052203174384775355,281474982487350,7002229
2024-01-01 00:00:03.440,-0.00047103830561832276,0.0006174286309273243,1.0007265149187348,0.029335964256383476,-0.03583545049852123,-0.06048040003327413,281474982487350,7002229
2024-01-01 00:00:03.450,0.0002320499373576363,-0.0006734142395598725,1.0003570653744605,-0.036028660580933215,0.07198621745858792,0.09559035422707073,281474982487350,7002229
2024-01-01 00:00:03.460,-0.0014480843414973242,0.0008878039355788485,0.9987653545825181,0.1550798615055691,0.07617875524805856,-0.016326198159996093,281474982487350,7002229
2024-01-01 00:00:03.470,-0.0014074637743765554,0.0013984839930693215,0.9991137615666366,0.2608465448279813,-0.0890388486164336,0.05974121727795515,281474982487350,7002229
2024-01-01 00:00:03.480,-0.000718444221252436,0.000781175336287599,0.9996788478128699,0.01039799240090892,-0.06272579914072184,-0.0653355646066969,281474982487350,7002229
2024-01-01 00:00:03.490,-0.00021344715171184726,-0.00021538828886007654,1.0010654147782383,0.045342124550525206,-0.07258786253441106,0.08036692496366381,281474982487350,7002229
2024-01-01 00:00:03.500,0.0003109075655980046,0.00014111449670559296,0.9992341159316794,0.00562437456228175,0.018335203775408353,0.019720035970711612,281474982487350,7002229
2024-01-01 00:00:03.510,0.001475356216949552,-0.0015249849401440597,1.0004559026331676,0.12840533990474368,0.09066948524582222,0.040491666115109626,281474982487350,7002229
2024-01-01 00:00:03.520,0.0008576596232020194,-0.00013377937252123968,1.0003036925939213,0.08291162842568113,0.019666532609010356,-0.017852361797901884,281474982487350,7002229
2024-01-01 00:00:03.530,-0.0001599385299634271,-0.0008604384680668332,1.001586197265079,-0.10663805706368437,-0.21906476944926828,0.16297699338428923,281474982487350,7002229
2024-01-01 00:00:03.540,-1.901620790268883e-05,0.000694326381149299,0.9999583202218706,-0.06127020104946451,0.07597531862669533,0.1870443207327375,281474982487350,7002229
2024-01-01 00:00:03.550,-0.001002529364637809,0.002572752389244474,0.9982452415817238,-0.1009296793005887,-0.13489908678871096,-0.2203717213588141,281474982487350,7002229
2024-01-01 00:00:03.560,-1.8513135992389903e-05,0.0004998216359738093,1.0006468704648968,0.26948223321955106,-0.07152403904539606,0.0926355741708366,281474982487350,7002229
2024-01-01 00:00:03.570,-0.0002886586389201379,-0.0019911401489546665,1.002138055211634,0.06353117835820689,0.019843136505042096,-0.10797406403173954,281474982487350,7002229
2024-01-01 00:00:03.580,0.0003227185603380895,-0.000361230192914373,1.0007123833448666,-0.05956862261097823,-0.0083885857235893,0.05096768435010928,281474982487350,7002229
2024-01-01 00:00:03.590,-0.000827230943552323,0.00012249092537445466,0.9992123384081896,-0.06755520406248401,0.08727352006941275,-0.17776760806473846,281474982487350,7002229
2024-01-01 00:00:03.600,0.0005193465142411723,8.73574252602637e-05,0.998918054120821,0.08052312729669105,-0.06107526322989276,0.04032382214992748,281474982487350,7002229
2024-01-01 00:00:03.610,0.0015327389130025777,-0.0007308131256087531,0.9990470311664926,0.09049201496591336,-0.09666137828900424,-0.08362375405988187,281474982487350,7002229
2024-01-01 00:00:03.620,-0.0001087601484568576,0.0002452917426369353,1.002003311880382,0.07981077130844104,-0.031164272508575005,-0.045882104844745364,281474982487350,7002229
2024-01-01 00:00:03.630,0.0004017117220989415,-0.0012425008369193876,0.9996726725594786,-0.042555735864971966,0.09770193356428139,-0.04320941746112648,281474982487350,7002229
2024-01-01 00:00:03.640,0.0006901439917111125,-0.000944908722685067,0.999337356606172,0.030584364441417756,0.0629672871082154,-0.07345507205316114,281474982487350,7002229
2024-01-01 00:00:03.650,-0.00040122047188583627,0.0006457976416037115,0.9998415633558728,0.01109150976333842,0.008714800792241696,-0.07074085019810825,281474982487350,7002229
2024-01-01 00:00:03.660,0.00022409248181041677,-0.0010156632308798259,0.9996830929513943,-0.09362603724384272,0.13259631880028572,-0.03980141584192825,281474982487350,7002229
2024-01-01 00:00:03.670,1.2592400781794861e-05,0.0005382116054922573,1.0015676503597875,-0.0926493842876022,0.11448562428051574,-0.015393119008422856,281474982487350,7002229
2024-01-01 00:00:03.680,9.767609854883172e-05,-0.001369463774656058,0.9989855225089836,0.041196504454313526,0.07884822361427664,0.03231318714111269,281474982487350,7002229
2024-01-01 00:00:03.690,-0.0007730097838554665,0.0017648258837917362,1.0011806432316603,0.019645108104365847,-0.11779838233485845,0.186070909605308,281474982487350,7002229
2024-01-01 00:00:03.700,2.4510174258942695e-05,-0.0007742699224040547,1.000122092096451,0.055335171084221146,0.07832390373078713,-0.09468758715725645,281474982487350,7002229
2024-01-01 00:00:03.710,0.0004979982912454495,-0.00022366657180344414,1.0012070265134276,0.07910230386937182,-0.0202358246458179,0.01267086884715438,281474982487350,7002229
2024-01-01 00:00:03.720,0.0014511436077950417,0.0003306132610904059,1.001582619043734,0.1499382622497529,-0.039494423070908447,0.0772652423526618,281474982487350,7002229
2024-01-01 00:00:03.730,0.0009592708260852069,-0.0005653499525010943,1.0000847976339131,-0.07759043861160468,-0.06825514712772067,-0.07088919523582494,281474982487350,7002229
2024-01-01 00:00:03.740,0.0021531824575115564,0.00014340596107130445,0.9996849363904008,0.0630236198725382,-0.017171656388434292,-0.2257269998823912,281474982487350,7002229
2024-01-01 00:00:03.750,-0.0007673475628880495,0.0005753567245201257,1.000066178831865,0.07491988165286849,-0.06257537551507157,-0.19092779149713252,281474982487350,7002229
2024-01-01 00:00:03.760,0.0008723206367206781,0.0009606132325034853,0.9999052293279949,-0.031213041252544454,0.0169754299951072,-0.22204896726647982,281474982487350,7002229
2024-01-01 00:00:03.770,0.00018334200573835174,0.0007914974359729572,0.9983430335442612,0.012186318356926856,-0.01729431610120041,0.15401168846916008,281474982487350,7002229
2024-01-01 00:00:03.780,0.0021898029332176722,-0.000171810463802674,1.001552480373785,-0.028655855669607384,0.022053849264506254,0.06141552906334307,281474982487350,7002229
2024-01-01 00:00:03.790,-0.0008082982853551514,-0.00014663177404360228,1.0002457850173812,0.2108590383357175,0.05532715379880681,0.07559753608306291,281474982487350,7002229
2024-01-01 00:00:03.800,-0.000839721842180776,0.002349108558025033,0.9988369008149489,0.010485269044110611,-0.029436517152181575,0.09814080722964907,281474982487350,7002229
2024-01-01 00:00:03.810,-0.0005993926454440221,0.0009498890682492922,0.9979324766798016,0.04515051087113933,-0.0737293228049367,-0.05754707068691476,281474982487350,7002229
2024-01-01 00:00:03.820,-0.002123895724309807,-0.0009218236563202137,0.9976724007670696,-0.026398429691721126,-0.20064026310638222,0.23030446980866934,281474982487350,7002229
2024-01-01 00:00:03.830,-0.0005257550216807611,9.99881637655518e-05,1.0007704804366875,-0.04796345662507897,0.07706537165675023,0.033546659307767755,281474982487350,7002229
2024-01-01 00:00:03.840,-0.0007591326615536979,-0.00033514313877819254,0.9993810224315929,-0.13020026617016772,0.007876526308048602,-0.007277251686009856,281474982487350,7002229
2024-01-01 00:00:03.850,0.00015039378647620764,-0.0001353342339231097,0.9995450993318948,0.1099868624725333,-0.017617638041161548,0.11100018145971213,281474982487350,7002229
2024-01-01 00:00:03.860,0.00034175597577715944,-0.0012294951577080878,1.0004881542645387,0.07684374973966009,0.11719163825273088,0.06672998731802249,281474982487350,7002229
2024-01-01 00:00:03.870,0.0018761708392158864,-0.00041192323438595316,0.9994839518438983,-0.030109644443978498,-0.12885211933853244,0.1335045929804841,281474982487350,7002229
2024-01-01 00:00:03.880,0.0009504238381860502,0.0018115557731939133,1.0005465244160534,-0.09003699030639427,0.005623976191145425,0.13938332446988327,281474982487350,7002229
2024-01-01 00:00:03.890,-0.0005769036556624031,0.000579076300875503,1.0000952640643768,0.017990852642014322,-0.09640586404705985,-0.03532465429274553,281474982487350,7002229
2024-01-01 00:00:03.900,-0.0008984146713483579,-0.00249116140815146,0.9999158704168508,-0.04976968062969693,0.0656005854176216,0.018702482090365933,281474982487350,7002229
2024-01-01 00:00:03.910,0.0004919191715065058,0.0012167234924979468,0.9984272495943085,-0.022204256863212146,-0.2226141279109114,-0.09091953667840902,281474982487350,7002229
2024-01-01 00:00:03.920,-0.0013202332070206422,0.0010896295229091612,0.9991802686435611,-0.12635599446028842,0.08040156627358651,-0.16282821718814547,281474982487350,7002229
2024-01-01 00:00:03.930,0.0018314587658543537,-0.00035928530430641653,1.000602535365587,0.021706958064802998,0.07626601871662735,0.08367972180946409,281474982487350,7002229
2024-01-01 00:00:03.940,0.001179440120721287,0.0007172635437832152,0.9993179781851359,0.023700320198874945,-0.09230124331354098,0.09570358639551602,281474982487350,7002229
2024-01-01 00:00:03.950,-0.0004691756521047048,-0.0008593992108172008,1.0012053695557845,0.10947228842396844,0.006633970906943754,-0.19822399399113103,281474982487350,7002229
2024-01-01 00:00:03.960,-0.001713134529090878,-0.00047025571626635736,1.0023464013239933,-0.015074156863260663,-0.09015233400197253,-0.07172080630738087,281474982487350,7002229
2024-01-01 00:00:03.970,0.0013538723741654134,0.0014985463606698537,1.0006563853008412,-0.033356247720383626,0.042759646061206906,0.005608339758682751,281474982487350,7002229
2024-01-01 00:00:03.980,-0.0001145398452526179,-0.0002717300398697084,1.0014928318913652,-0.15567608661172253,0.08202291077126685,0.015138774180092823,281474982487350,7002229
2024-01-01 00:00:03.990,0.0012378163119734617,-0.0018697316619549912,1.000720727238296,0.11009609483626293,-0.10049796658376027,0.20450009110814196,281474982487350,7002229
2024-01-01 00:00:04.000,-0.0015944276587943672,-6.330322278133675e-05,0.9994657379773279,0.08928231165569593,-0.129674865687682,-0.06269381175446131,281474982487350,7002229
2024-01-01 00:00:04.010,-0.0005993750229537729,-7.858839291435681e-05,1.0002001516648074,0.002873844140680185,0.10964371507002374,-0.017130647527315614,281474982487350,7002229
2024-01-01 00:00:04.020,5.243699718183166e-06,0.0011983685693734596,1.0020133209460975,-0.13292310545303723,0.19411705915114608,0.06498573741136285,281474982487350,7002229
2024-01-01 00:00:04.030,4.698059376474206e-05,1.4336422175760023e-05,0.9994764462573725,-0.12145270310881418,0.04944470566020922,-0.035020309190787406,281474982487350,7002229
2024-01-01 00:00:04.040,-0.00045006547147924365,-0.00042158231144029276,0.9989606727011219,-0.054710592876428966,0.0568441488492121,-0.05049761304878643,281474982487350,7002229
2024-01-01 00:00:04.050,0.0006228499323474988,0.001045056145231206,0.9988658055768848,0.09652257088666637,-0.03320405791588485,-0.058705990979317973,281474982487350,7002229
2024-01-01 00:00:04.060,-0.0010676204293825944,0.00012079023250111028,0.9997824706161664,0.02903376352416373,0.01800280058801931,0.02329802549559086,281474982487350,7002229
2024-01-01 00:00:04.070,-0.0001423794850212935,-0.0007500226815657171,0.998996527911357,-0.14933571888817754,0.035072128523956955,-0.01756904428890104,281474982487350,7002229
2024-01-01 00:00:04.080,0.00012029563171189887,0.0011549975605416177,1.0016740194274372,0.04042119146002209,-0.018257293579481627,0.06824799707485645,281474982487350,7002229
2024-01-01 00:00:04.090,0.000514438834058749,0.00019366176451679923,1.0002163565345912,-0.08391465791708573,0.13498605220145055,0.03574581402723014,281474982487350,7002229
2024-01-01 00:00:04.100,0.0007116148780888895,2.925966679437689e-06,1.0009717263097606,-0.05222122265121455,0.017674475603449598,-0.2915389804481916,281474982487350,7002229
2024-01-01 00:00:04.110,-0.001124642091837869,0.00017790839141165377,0.9997013346094203,0.09717380125217054,0.030560001014829037,-0.17515265743612687,281474982487350,7002229
2024-01-01 00:00:04.120,-0.0015341141707356223,-0.001070668371416597,0.9988598028022438,0.07655040837808319,-0.016196305033984653,-0.05007627150360905,281474982487350,7002229
2024-01-01 00:00:04.130,0.001277676821898509,-0.0005276537761783373,0.9986906060545667,0.10930998828254233,-0.00603392754341104,0.09800025893061792,281474982487350,7002229
2024-01-01 00:00:04.140,0.00033231401197959164,3.5826018327832726e-06,0.9990920082578219,-0.002313351908421224,0.12187102711423013,-0.0651678440113482,281474982487350,7002229
2024-01-01 00:00:04.150,-0.0007484865365565537,-0.00019466369502467936,1.0003475254940266,0.08830245578661872,0.01459060310282214,0.037459115155721916,281474982487350,7002229
2024-01-01 00:00:04.160,0.001551151975522523,0.0012724283828165954,1.0005198829317679,-0.05861362637630574,0.016929505251193962,0.05984957357286141,281474982487350,7002229
2024-01-01 00:00:04.170,0.00011567463429285867,0.00021740585272700345,1.0006031960730586,-0.025756593460529366,0.018220207789274436,0.054026625827845245,281474982487350,7002229
2024-01-01 00:00:04.180,0.0011792971840638264,0.0008549039226364025,0.9985113273162182,-0.03262932244047908,-0.036451263691417275,-0.05474242799271159,281474982487350,7002229
2024-01-01 00:00:04.190,6.751848141010895e-05,9.395354575849456e-06,0.9999995908141017,0.0023865018224493964,-0.14079400156538877,-0.1148087509294043,281474982487350,7002229
2024-01-01 00:00:04.200,0.0020607479248819873,0.001056288483746123,0.9989739381691076,-0.12864910863120785,0.15725741471116156,-0.13122243861015703,281474982487350,7002229
2024-01-01 00:00:04.210,0.0017553408424432044,0.00039752775657315396,1.0004014659675846,-0.022500490312336162,0.10682940119000273,0.29709352037276754,281474982487350,7002229
2024-01-01 00:00:04.220,-0.0002489641484790735,1.3420485388464292e-05,1.0004790770554974,0.1451657301518739,0.12490436522848891,0.04554262971974579,281474982487350,7002229
2024-01-01 00:00:04.230,0.0009715709509543555,-1.3283088959023663e-05,0.9988278269529736,-0.10925281618114341,-0.10725188690525458,0.18405829103452237,281474982487350,7002229
2024-01-01 00:00:04.240,0.0006453759495851476,-0.0009544386262909634,1.0009680296071963,-0.13293212819150324,0.1444920254642602,-0.08331102618088251,281474982487350,7002229
2024-01-01 00:00:04.250,0.0013686315575323488,0.0005069157201363108,1.0023388229415282,-0.1248688327662228,0.1966870787025279,0.12483184433557513,281474982487350,7002229
2024-01-01 00:00:04.260,-0.0009649234605801045,-4.020473453637896e-05,1.0008348357375847,0.2661859444074641,0.10448224142727913,-0.047681068674531826,281474982487350,7002229
2024-01-01 00:00:04.270,0.0006860514599984393,-0.0005019919601812046,0.9998371659604489,0.04648519808703776,0.16478224125203134,-0.0028948442785363872,281474982487350,7002229
2024-01-01 00:00:04.280,0.0010584244868495879,0.001106461770812072,0.9996834542967903,-0.02702653843413823,0.07978486082597713,-0.02863637861139931,281474982487350,7002229
2024-01-01 00:00:04.290,-0.0017587394864231143,-0.0012502160258948015,0.9997909360183275,0.006832041300813639,-0.08466076033799483,-0.0879436050756387,281474982487350,7002229
2024-01-01 00:00:04.300,-0.001183258512665775,-0.000422495895432434,0.999239266153223,0.02276393992468176,0.05076318704322085,-0.08642356827447327,281474982487350,7002229
2024-01-01 00:00:04.310,-0.0020392321777601007,0.0010277187487795333,1.000252398206652,-0.06404499757293804,-0.10203426997752332,-0.003910730261128754,281474982487350,7002229
2024-01-01 00:00:04.320,-0.00026940683444455764,0.0003155229409202532,0.9988615374088456,-0.051721674870910284,-0.05973741384997142,-0.05870798030324645,281474982487350,7002229
2024-01-01 00:00:04.330,0.0007175422557959622,-4.785892765275731e-05,0.9981103022134021,-0.015768313220202997,0.0316280428589269,0.012672023234222516,281474982487350,7002229
2024-01-01 00:00:04.340,0.0015023570520960282,0.00025100354315014657,1.0002196016818135,-0.07247550882349062,0.018201847088009798,-0.08378293121514563,281474982487350,7002229
2024-01-01 00:00:04.350,7.409478041977519e-05,0.0001794141710488413,1.0000212330657758,-0.039693460702118856,0.046307540633606294,0.07074608876884957,281474982487350,7002229
2024-01-01 00:00:04.360,0.0016286155455712918,-0.0015166625462859214,0.9994288299835629,0.035309157733034564,-0.17920889937244766,-0.045996341803206824,281474982487350,7002229
2024-01-01 00:00:04.370,-0.0013801014582148915,-0.0003492618853479615,0.9987173033773896,-0.09971531796200996,-0.015423794675753562,0.1636933860878738,281474982487350,7002229
2024-01-01 00:00:04.380,-0.0017033824393551547,0.0016165216545137489,1.000289744026914,0.26099494209478524,0.054899849766553814,-0.0050624919681167375,281474982487350,7002229
2024-01-01 00:00:04.390,-5.554769889661878e-05,-0.0006593241347771676,0.9990098249614295,0.07531566108861996,0.07483736725592421,-0.010218138422990054,281474982487350,7002229
2024-01-01 00:00:04.400,0.0003840654489393073,-0.000318301014104334,0.9998610556491346,-0.12700847385126518,0.08137729805832677,0.16035350746083238,281474982487350,7002229
2024-01-01 00:00:04.410,-3.269474809409311e-05,-0.0005416207633091875,1.0017649718541264,-0.24779035091006119,0.025125826105662392,-0.04952797846653775,281474982487350,7002229
2024-01-01 00:00:04.420,-0.0020674421000398766,-8.701522331813741e-05,1.0006511897695753,-0.06875032851377787,-0.037922414997745575,-0.040690581583516204,281474982487350,7002229
2024-01-01 00:00:04.430,-8.912003951278841e-05,-0.0005831228313242981,0.9986308673376183,0.06843606496072474,0.0501470885176038,-0.07009737980981813,281474982487350,7002229
2024-01-01 00:00:04.440,-0.0013044695005048532,0.00048674150215806,0.9987251484289877,0.04904698944501049,-0.02997131152902164,0.020443370994279318,281474982487350,7002229
2024-01-01 00:00:04.450,0.0006696725488300384,0.00019731341229026656,1.0001518190927439,-0.011084851034861272,0.09010563868989152,-0.07351803221074123,281474982487350,7002229
2024-01-01 00:00:04.460,0.0003665982460968483,0.0007735476151070181,0.998624679317941,-0.06014424611430855,0.042730795329446555,0.07766650174046696,281474982487350,7002229
2024-01-01 00:00:04.470,-0.0009398797863273552,-0.0010509411661889605,0.9979982745187657,-0.090413137399193,-0.0061722146787673736,-0.004657854635140009,281474982487350,7002229
2024-01-01 00:00:04.480,-0.0005138669173366936,-0.00034034048288290295,1.0005323720112966,-0.040258307110950714,-0.07689951177575177,0.08388904759274617,281474982487350,7002229
2024-01-01 00:00:04.490,-0.0010592135218889516,-0.0002257226316121348,1.0003209357543208,-0.10123799738276024,0.11194754405380897,0.07261849601874505,281474982487350,7002229
2024-01-01 00:00:04.500,-6.267909727317187e-05,0.00045564691008859474,1.000450598331279,-0.03988777562084495,0.05590494463418603,-0.051248265155619754,281474982487350,7002229
2024-01-01 00:00:04.510,0.0009551423205012383,-0.0007932211972070344,1.0002630351818178,0.1330950935822822,0.21029696765937236,-0.07369733499605788,281474982487350,7002229
2024-01-01 00:00:04.520,-0.0009857260463355438,0.0009156538042583441,0.9999346892883276,-0.07712397992493997,0.05262192639929443,-0.03283602260761153,281474982487350,7002229
2024-01-01 00:00:04.530,0.0005040465155178444,0.001186415590517609,0.9993378114523234,0.06108812830519882,0.060991689078342126,0.0008868172637017174,281474982487350,7002229
2024-01-01 00:00:04.540,-0.0005302576183724408,-0.000988872347635584,1.000516134966088,0.0763423812984203,-0.14652688153969998,0.03340220104402893,281474982487350,7002229
2024-01-01 00:00:04.550,-0.0007928728322623442,-0.0004908728948935658,1.0015298834884052,-0.10796013185359161,0.031048437952806054,0.04451313336545647,281474982487350,7002229
2024-01-01 00:00:04.560,-0.00010703035995455783,-0.0005319315082920924,0.9994987709925566,-0.08433718745595037,-0.03165282533244595,-0.0031926886127300984,281474982487350,7002229
2024-01-01 00:00:04.570,-0.0010352423224193742,0.0026323862046774985,0.9989792597897917,0.10689434369867896,0.08264322884091108,-0.06811794077339198,281474982487350,7002229
2024-01-01 00:00:04.580,-0.000553649305347182,-0.0004299001052078867,0.9988648805805888,-0.09257640396506979,0.03346844431590822,-0.058662400239762574,281474982487350,7002229
2024-01-01 00:00:04.590,-0.0011978778925888485,0.0016776254421561345,0.9991332697666663,-0.005748574921080336,0.09852731810259228,0.05183537121634309,281474982487350,7002229
2024-01-01 00:00:04.600,0.0019647251329163893,-0.0012666319951066096,1.000202598524476,0.20399838221685257,0.21325951139619456,-0.06501834446928768,281474982487350,7002229
2024-01-01 00:00:04.610,3.526355197172861e-05,-0.0009896509661643635,0.9978603724364464,0.09798322570613639,-0.07983623054522321,0.056023448527377895,281474982487350,7002229
2024-01-01 00:00:04.620,-0.0006997255079925854,-0.0006866045318482008,1.0004391704244324,0.0085230451735566,0.09467065595253875,0.05929605220461355,281474982487350,7002229
2024-01-01 00:00:04.630,0.00021397991073422197,-0.0008456893114465224,1.0006439130102962,0.08407305745312542,0.06835931668103594,0.1533916589318578,281474982487350,7002229
2024-01-01 00:00:04.640,-0.00011232804969082963,-0.0002678987341584987,0.9982019216400572,-0.005592208531401828,0.19792947878821976,-0.04808537552959208,281474982487350,7002229
2024-01-01 00:00:04.650,-0.0002209695995332226,-0.0007087782027214982,0.9990208195637224,0.1018231833203474,0.07053845700316035,-0.03251540280195679,281474982487350,7002229
2024-01-01 00:00:04.660,0.0006141667000434252,-0.0008193415927345736,1.0000796809798453,-0.20462654313464712,0.06014103947437404,-0.23126974618532953,281474982487350,7002229
2024-01-01 00:00:04.670,0.0007575077100473052,0.0011584719964733278,0.9998565302696956,-0.013926599637494513,0.0851453231028983,-0.09430728750427353,281474982487350,7002229
2024-01-01 00:00:04.680,-0.0005305011476105275,0.001223793622513165,1.0005196374682686,-0.2086339906592822,0.09212661089670003,-0.09561290229166378,281474982487350,7002229
2024-01-01 00:00:04.690,-0.00057581824064468,0.0009492964983753157,0.9998588631784836,0.016135518823182888,0.14543701522608363,0.05056716944342424,281474982487350,7002229
2024-01-01 00:00:04.700,-0.00027505169715164404,0.000523998955584328,1.001264769526775,-0.023617789827269867,-0.08193785293864873,0.18073789026460552,281474982487350,7002229
2024-01-01 00:00:04.710,-0.0023019211647355847,9.274306577955229e-05,0.9996788306009563,0.13607298466423298,-0.03923387777253255,0.05807579839756919,281474982487350,7002229
2024-01-01 00:00:04.720,-0.001515191062198552,-0.0004970306906659088,0.9990169670132802,0.07118273685976673,0.17352861194805042,0.099079193015952,281474982487350,7002229
2024-01-01 00:00:04.730,0.0013668742674445246,-0.000953157504755092,0.9989365581337383,-0.05260876875400664,-0.19587149453960823,-0.07113302039700828,281474982487350,7002229
2024-01-01 00:00:04.740,0.0016449677135012837,0.00036299570343268733,1.0007354685092817,-0.040621625658086497,-0.008472924419812558,-0.11979746298120537,281474982487350,7002229
2024-01-01 00:00:04.750,-0.0002490360395563783,-0.0011736303925467975,1.0000296211419568,0.03806965302297806,0.014955998638416705,-0.024202144111293653,281474982487350,7002229
2024-01-01 00:00:04.760,0.0005765569630557664,-0.0009939209291753937,1.0006337159007253,-0.057256059255327285,-0.017691187973783096,-0.06237542417424811,281474982487350,7002229
2024-01-01 00:00:04.770,0.0003112501545435361,0.00115291325620481,1.0006131224992292,-0.003237278638454491,0.15809480331403197,-0.08610905039149233,281474982487350,7002229
2024-01-01 00:00:04.780,0.0030788808084552376,0.001900649041722087,0.9979801501472362,0.13166980645148693,0.04759377820015795,0.021826067923215703,281474982487350,7002229
2024-01-01 00:00:04.790,0.0011195749114345768,0.00039329513816648075,0.9988599173989765,-0.08291301835303785,-0.03873141046452375,-0.11859203190813078,281474982487350,7002229
2024-01-01 00:00:04.800,-0.00012791759148076653,0.0011064571522946443,0.9989793749594962,-0.04476743659563957,-0.06344093109972151,0.08264806848326617,281474982487350,7002229
2024-01-01 00:00:04.810,-0.0009555404406004258,-0.0002458483174439834,0.9991839358115082,-0.030743234544931653,0.02818255784930876,-0.03994411356708755,281474982487350,7002229
2024-01-01 00:00:04.820,-0.0016064463202575725,-0.0013376741860876842,0.9995796446734235,0.31580734261856236,0.11659540372027664,-0.004523846345538226,281474982487350,7002229
2024-01-01 00:00:04.830,0.0002034636358672231,0.0006121716186185841,1.000999149594617,0.06082426625071672,0.013840811136757829,0.009978630808852963,281474982487350,7002229
2024-01-01 00:00:04.840,-0.0007563507452843034,0.0005692893232700639,1.0011984823523838,0.11320683390478421,-0.01344203342578326,-0.04667144950481161,281474982487350,7002229
2024-01-01 00:00:04.850,-0.0014222537095976743,7.166855388024412e-05,0.999707109169797,0.07681257118783845,-0.06952836888446957,0.12655488236068288,281474982487350,7002229
2024-01-01 00:00:04.860,-0.0006465728842425267,-0.00024237545810511135,0.9997487191386752,0.08353938659852993,0.037403883808930054,-0.16057808133078266,281474982487350,7002229
2024-01-01 00:00:04.870,-0.0010815480036143951,0.000962210578581098,0.9992945662759427,0.04735735373322883,0.03185705223709231,0.12833349961088086,281474982487350,7002229
2024-01-01 00:00:04.880,0.0016871416350725647,-0.0009857330334274745,1.0000891876972386,0.036526920005909215,-0.07242185660961863,-0.03470540110903673,281474982487350,7002229
2024-01-01 00:00:04.890,0.0008816397569494505,-0.0007737805788906579,1.0002025208827339,-0.14507446544685365,0.10264161759931219,0.09207474469776206,281474982487350,7002229
2024-01-01 00:00:04.900,-7.972641316617376e-06,-0.001008106506760428,1.0008064755550024,0.03578645563429395,0.17060433092537797,0.02012409412603054,281474982487350,7002229
2024-01-01 00:00:04.910,0.0014799441388900264,8.497296263582721e-05,1.0007984387259825,-0.010834359239295797,0.004899796786537715,0.08504967536789582,281474982487350,7002229
2024-01-01 00:00:04.920,7.73683076476183e-05,-0.0010878930121092584,0.9976978819489309,0.05454569028494952,0.030213764311265323,-0.011841192238273792,281474982487350,7002229
2024-01-01 00:00:04.930,-0.0008612842013282637,-0.0006842421805152436,0.9998474550523628,-0.007085916664044703,-0.11049346207142047,0.023843602452533634,281474982487350,7002229
2024-01-01 00:00:04.940,0.0015231240772696573,-0.0007057555622271979,1.00138410003089,0.07631642927279919,0.07371895253737577,0.10979047571667402,281474982487350,7002229
2024-01-01 00:00:04.950,0.0005389100436846587,-0.0002606083323339582,0.999561885072695,0.09399325711491803,0.04641742169274627,0.009584888401692073,281474982487350,7002229
2024-01-01 00:00:04.960,-0.0010372461543264565,-0.0014873744464039768,1.0011392418183633,-0.2912160024645764,-0.03261044794789913,0.13300782083807142,281474982487350,7002229
2024-01-01 00:00:04.970,-0.0001903386780836082,8.7204992037267e-05,0.9996935481999888,-0.04338928181659582,-0.07434925189520002,0.03521967366878146,281474982487350,7002229
2024-01-01 00:00:04.980,-0.0008756182533847574,0.0012473036506646777,1.000174923467442,-0.18573869058881268,0.18475702436216604,-0.07327199693227181,281474982487350,7002229
2024-01-01 00:00:04.990,-0.0013827997309643362,0.00013549137231676193,0.9988631093076008,0.023894455464199438,0.038277023607300086,-0.035481111080379234,281474982487350,7002229
2024-01-01 00:00:05.000,0.0009261775475316414,0.0015413211448013207,0.9989007514424335,-0.03007083778540004,-0.09176712958807301,0.08881075723061893,281474982487350,7002229
2024-01-01 00:00:05.010,0.0019094166404701304,0.0013339981858769253,1.000725491572263,0.13558284705866055,0.08555442924153048,-0.12397805412930213,281474982487350,7002229
2024-01-01 00:00:05.020,-0.0013985675738191412,0.0007777350472478546,1.0008818182802006,0.020724466180087723,0.022965731280779583,0.07928800194669187,281474982487350,7002229
2024-01-01 00:00:05.030,0.0005629692366905709,7.468584263688565e-05,1.0000264289062004,-0.04855299764637133,0.005889233032705849,-0.036576841816639886,281474982487350,7002229
2024-01-01 00:00:05.040,-0.0006506425691218271,2.2500388245439573e-05,0.9987724757573616,0.09385715398455846,0.09785572955377009,-0.1289719305642778,281474982487350,7002229
2024-01-01 00:00:05.050,-0.0004871253837646962,0.00076379977236326,1.0000438045566071,-0.03182024578274428,-0.2612763087981893,0.020725623180198962,281474982487350,7002229
2024-01-01 00:00:05.060,-0.0005923939242388692,-0.0003916706095040324,1.0012572349606743,-0.04979975558936685,-0.18070396111176842,-0.0700190316516467,281474982487350,7002229
2024-01-01 00:00:05.070,-0.000863990769679816,-0.0018825207514674637,1.0017428664700518,0.03936254146418557,0.13792187245366272,-0.05716246700699371,281474982487350,7002229
2024-01-01 00:00:05.080,4.8521627944826994e-05,0.0004920040541029598,0.999683292067674,0.16129713899394715,-0.012892211644700136,-0.06257361994142051,281474982487350,7002229
2024-01-01 00:00:05.090,-0.0008309501164110378,-0.0011310686299349712,0.9983401321497422,0.08535519082398224,-0.04267722808786659,0.011489319736773501,281474982487350,7002229
2024-01-01 00:00:05.100,0.0002704568257798388,-0.0009621412281903848,1.0008403635995549,0.05669309652814763,-0.13377569883326745,-0.038996647552428154,281474982487350,7002229
2024-01-01 00:00:05.110,-5.023810944913695e-05,2.2394799578804668e-07,0.9997240369035449,0.2750948533521664,0.019384934914930416,0.039094871127476956,281474982487350,7002229
2024-01-01 00:00:05.120,-0.00023894804686640976,-9.512487755346981e-05,1.0009430406415611,-0.07324100363594925,0.03172558056765597,0.10124204522399555,281474982487350,7002229
2024-01-01 00:00:05.130,-0.0009075636620415979,-0.0014120756063156303,1.0002810722250177,-0.07547178369421068,0.14408146419951623,0.05416880031673665,281474982487350,7002229
2024-01-01 00:00:05.140,-0.0005767713305683327,0.0001654915641331403,0.9991165558942382,0.014556948043974276,0.037244517518931264,0.18053080564662305,281474982487350,7002229
2024-01-01 00:00:05.150,0.000755391225825756,0.0009661396608610485,1.0000582443606594,0.15150263841047143,-0.03028078997184143,0.2051348550253969,281474982487350,7002229
2024-01-01 00:00:05.160,0.0005009171876243808,-0.0011283415702657829,1.0013083383670542,-0.09416859762946028,0.040567675186961756,-0.02902562604778381,281474982487350,7002229
2024-01-01 00:00:05.170,-0.000977555244798551,0.0012724833308487592,0.9998508460110328,0.175457259756306,0.11094885622446092,-0.11526208745614355,281474982487350,7002229
2024-01-01 00:00:05.180,9.933230542922587e-05,-0.001560170825129944,0.9989651948365547,-0.14391224894083882,0.0891219680519052,-0.02891322660228035,281474982487350,7002229
2024-01-01 00:00:05.190,0.0007513871233717891,0.0021173241443709534,0.9984113558314034,-0.01212180507211785,0.06214347913217447,0.011835406746919764,281474982487350,7002229
2024-01-01 00:00:05.200,-0.0016694052811213717,-0.0004112604304834836,0.9992278353131353,0.017346566566864962,0.02745818493125527,0.22257711724153492,281474982487350,7002229
2024-01-01 00:00:05.210,0.000543360192379935,0.00014561699682689137,0.999589863738229,-0.08826319163179018,-0.05813272121504516,-0.03748025018588783,281474982487350,7002229
2024-01-01 00:00:05.220,-0.0006626237589458467,-0.0018920335724856702,1.0008199991359172,-0.06212343649322008,-0.10327988124951547,0.02779303704666441,281474982487350,7002229
2024-01-01 00:00:05.230,0.0005705986685931593,-6.213606646930852e-05,0.9988791507321884,0.07966304793356654,-0.1191006072377687,-0.06811612169665737,281474982487350,7002229
2024-01-01 00:00:05.240,-0.0007632591565425169,0.00022848217771819174,1.0015537518857296,0.14415557425112338,0.039396628787505786,-0.03466742906400417,281474982487350,7002229
2024-01-01 00:00:05.250,-0.001804882100664519,-8.616210409949456e-05,0.9986628477891588,-0.21146103624960216,0.04982800699350757,-0.12143861514189598,281474982487350,7002229
2024-01-01 00:00:05.260,-0.0016275424378831627,-0.0005630810770523737,1.0023314860925567,0.018023638545931458,0.10943044826038982,-0.14627324026330296,281474982487350,7002229
2024-01-01 00:00:05.270,4.8084946661382e-05,-0.0009465645185278149,1.0017255185567544,-0.011330890361580297,0.05617318522498617,0.13609306661437917,281474982487350,7002229
2024-01-01 00:00:05.280,0.0002597225017214819,0.001130526619537311,1.000141166249388,0.01073963556239504,0.10508714491459584,0.10661970143826625,281474982487350,7002229
2024-01-01 00:00:05.290,-0.0009043166251044086,3.080713499795014e-05,0.9983523064652304,-0.03167664756162019,-0.013054663064191932,-0.03696020320607774,281474982487350,7002229
2024-01-01 00:00:05.300,0.000638592458777374,0.0015407523765167725,0.9999445759380176,-0.12904869695563276,0.07708424634363197,0.10633825569080216,281474982487350,7002229
2024-01-01 00:00:05.310,-0.0016615200622689598,-0.000526482354794923,0.9996131590420135,0.1542296978044621,-0.10014705119303524,-0.13069063044896542,281474982487350,7002229
2024-01-01 00:00:05.320,-6.607979864731658e-05,-0.000434794693372217,0.9987257127769491,0.11593295983306998,-0.006018585187592518,-0.017336321057784845,281474982487350,7002229
2024-01-01 00:00:05.330,-0.0012110161997624564,0.0008155942445961631,1.0002910096272475,-0.010398918889688247,-0.18314856042385486,0.017426251261010228,281474982487350,7002229
2024-01-01 00:00:05.340,-0.0006518361078021592,-0.0016229749620035642,0.9991763568701444,-0.048831321247334296,0.003158465610566949,0.12660542341170994,281474982487350,7002229
2024-01-01 00:00:05.350,4.7398671316414014e-05,-0.001213463360152923,0.9992850941529504,-0.06094406290058799,0.12247864840410316,0.019754073435902963,281474982487350,7002229
2024-01-01 00:00:05.360,-0.0008604133652839524,0.0010974849713531636,0.9997963213654276,-0.25856532248144803,0.0070210650082773015,0.05447508943195698,281474982487350,7002229
2024-01-01 00:00:05.370,-0.00038455554422982534,-0.0011719339292231947,0.9994250911712943,0.035382007460241144,0.07218249921732242,-0.046996076823290635,281474982487350,7002229
2024-01-01 00:00:05.380,0.0010062928092144405,-0.0018190510153025478,1.00207815661711,0.07803235903028444,0.02731852140913213,0.02639580239476008,281474982487350,7002229
2024-01-01 00:00:05.390,-0.0005768918695231487,0.001868527188073091,0.9994642853670005,0.013790211610976858,-0.05704258126393609,0.126436007965543,281474982487350,7002229
2024-01-01 00:00:05.400,0.0008356921120651419,-0.0013938176478742056,1.0004408810113945,-0.008633643459975261,-0.018664781035123836,-0.16165097857686883,281474982487350,7002229
2024-01-01 00:00:05.410,-0.0011297068546576182,0.00018411939832816963,1.0001455224922104,0.013338350848658457,0.11796844936508522,0.1136074630595519,281474982487350,7002229
2024-01-01 00:00:05.420,0.0005298041779152828,6.908519272427113e-05,1.000352750225259,-0.08532259807575766,0.07166740558078726,-0.02099710093501912,281474982487350,7002229
2024-01-01 00:00:05.430,0.0014415686206579004,-0.0028106283166180832,1.0004290884036109,-0.04995552273703314,-0.06175958004533808,-0.1405953208847622,281474982487350,7002229
2024-01-01 00:00:05.440,-0.0024716445001272892,-0.0002673170231678089,1.0008813614866061,-0.016633302823215814,-0.13874715458985154,-0.026713129422071703,281474982487350,7002229
2024-01-01 00:00:05.450,-0.0007968952554704769,0.00044841324947910956,1.0002664460756185,0.06966765747648956,0.020684658356447345,0.1290081157043634,281474982487350,7002229
2024-01-01 00:00:05.460,0.0005770721271805401,0.00035430938151886053,1.0002248957948863,0.13788583732951118,-0.058187982376975304,-0.048233498346885506,281474982487350,7002229
2024-01-01 00:00:05.470,-0.0002030453860429927,0.0009035206838035013,1.0000584770684682,-0.02291478429729563,-0.01774350097632825,0.029933971563876866,281474982487350,7002229
2024-01-01 00:00:05.480,0.00037114587337130884,-0.00038749131490543404,0.9998615821476601,-0.10447855375654158,-0.14544225830944785,-0.16131859819487837,281474982487350,7002229
2024-01-01 00:00:05.490,-0.0006039851867158206,0.0007125044420921607,0.9990882021183394,0.0035646790763430173,0.10407528575112945,-0.18256662667115886,281474982487350,7002229
2024-01-01 00:00:05.500,8.658978747289991e-05,-0.0006893290680800719,0.9999391316225797,0.20114911125889212,-0.009697780726717828,-0.10767390196833326,281474982487350,7002229
2024-01-01 00:00:05.510,-0.00015567723539207948,-0.001410467416412775,1.0002412673752656,-0.09578064351337343,0.00546599711347555,0.10128080096704857,281474982487350,7002229
2024-01-01 00:00:05.520,0.0011677820616598075,-0.0012977283756812326,1.0004021645565728,0.08858407471328127,-0.0832930215395168,-0.005083131778477398,281474982487350,7002229
2024-01-01 00:00:05.530,0.00025442084330121314,-0.0014621104551954148,1.0001802847729901,0.13359605561206053,-0.027738470585961846,0.10996962118804639,281474982487350,7002229
2024-01-01 00:00:05.540,0.00033760266207520217,0.0010095859678911938,0.9997670449865514,-0.03600148598254861,0.012245977632726807,0.11581136585376606,281474982487350,7002229
2024-01-01 00:00:05.550,-0.0004118769661224674,-0.0015145735090585566,0.9999429200968041,-0.07007245777190402,-0.06132572264770123,-0.07581515447487511,281474982487350,7002229
2024-01-01 00:00:05.560,-0.00048760622407249354,0.00027403884064930326,0.9994463535154492,0.057495668283325266,-0.021586175006666982,0.15670010163427356,281474982487350,7002229
2024-01-01 00:00:05.570,-0.0004325581878196209,-0.000265924194072433,1.0003132239910066,0.0353216772804165,0.1386291424553325,-0.05443795893481869,281474982487350,7002229
2024-01-01 00:00:05.580,0.00039445214237829687,-0.0001026485734506316,0.9997788717720859,0.0694774171320887,-0.17500419696353117,0.1000362217675484,281474982487350,7002229
2024-01-01 00:00:05.590,-0.00042098448082026295,0.0013636072951997,1.0001805609381975,0.2073709431489805,0.01845617010613343,0.09594915023854594,281474982487350,7002229
2024-01-01 00:00:05.600,0.00028977485689641284,-0.00043842736721527346,1.0010008030433826,0.016704655337656374,-0.07854660669514908,0.006503451541399258,281474982487350,7002229
2024-01-01 00:00:05.610,0.0020754007986454382,0.0006116015615496833,0.9992906410903576,-0.11922248489561023,0.13364899898343827,0.006666270973599647,281474982487350,7002229
2024-01-01 00:00:05.620,0.0008711247034316924,3.756335138111171e-05,1.0005966953809105,0.006664000216842422,-0.01807273008372769,0.032046069396859674,281474982487350,7002229
2024-01-01 00:00:05.630,-0.00032602353216784114,-0.00015201890563269787,1.0000332101798854,0.0241556794205381,-0.10471545743915384,0.011543736443955427,281474982487350,7002229
2024-01-01 00:00:05.640,0.0012012139221639448,0.0022999691243864736,1.0020211935995809,0.1267168637088249,-0.021561003768566393,-0.03901370284945216,281474982487350,7002229
2024-01-01 00:00:05.650,-0.0004080753730215514,-0.0014413417457153697,0.9997836996715365,-0.019676439542770315,0.03496342577353137,-0.047590104649666225,281474982487350,7002229
2024-01-01 00:00:05.660,-0.002038124535177854,0.001289131835437445,1.000695164583151,-0.040906783369538485,0.2775622457576957,-0.03821408077750596,281474982487350,7002229
2024-01-01 00:00:05.670,-0.001008086310917404,0.0006564065654899721,1.000015353451756,-0.13711939961665903,-0.21098100313296053,0.12182164112153676,281474982487350,7002229
2024-01-01 00:00:05.680,-0.0018707919210258557,-0.00047952499463178405,0.9986116954916865,0.05474127920641301,-0.11991161349844329,-0.15883400462845962,281474982487350,7002229
2024-01-01 00:00:05.690,-0.0003515134840413087,0.0016293185174416122,0.9994793109044808,0.33482071855389756,0.13052188804680484,-0.04968417548318285,281474982487350,7002229
2024-01-01 00:00:05.700,1.84183791895517e-05,-0.0018481101123885367,1.0008804711054284,-0.022259098400393872,-0.15089596426327245,-0.03259408008332066,281474982487350,7002229
2024-01-01 00:00:05.710,0.0016764373122752827,-0.0005217666572990717,0.9995673055393918,0.04519549545219488,0.0009631922849120934,-0.022809823585606126,281474982487350,7002229
2024-01-01 00:00:05.720,0.00032692737376416265,-0.0012084822042690761,0.9977797436851604,-0.05478328533149632,-0.04833648790382508,0.029677501891789124,281474982487350,7002229
2024-01-01 00:00:05.730,-0.00021910052880886425,0.00041208346487146017,0.9999685969830755,-0.12812849199958407,-0.06404240467748389,-0.13482494582244817,281474982487350,7002229
2024-01-01 00:00:05.740,0.0008294055811834892,-0.0011130641011871775,0.998907663702049,0.04342359392005308,-0.017219261560848773,0.10253160630177612,281474982487350,7002229
2024-01-01 00:00:05.750,-0.002211135309007885,0.0004330639467413191,1.0001318177325966,0.0028188283437192065,-0.0332682721159223,0.08869538083545248,281474982487350,7002229
2024-01-01 00:00:05.760,0.00023561455810856594,-0.00018643641582155406,1.001551147081398,-0.23855541430658236,0.10570616142199168,0.06743339442765227,281474982487350,7002229
2024-01-01 00:00:05.770,0.0007708651938869668,-0.00047935394265608434,1.0007694573108028,0.1610028715740119,0.1328294707443032,-0.020755858859075816,281474982487350,7002229
2024-01-01 00:00:05.780,-0.0014785862457798416,0.00038864724603331074,1.00153665582874,0.04159643763371159,0.04263039636607524,-0.07383520046578884,281474982487350,7002229
2024-01-01 00:00:05.790,0.001143754043206929,-0.0002686216239380642,0.9994384879785555,0.007389555010360419,-0.02360725378383668,-0.032520159220295726,281474982487350,7002229
2024-01-01 00:00:05.800,0.0003384964074944141,-0.0010886348430590388,0.9998568336663645,-0.042197686409230856,0.025846987080841717,0.0060865109318372634,281474982487350,7002229
2024-01-01 00:00:05.810,-0.0004152879139008013,0.0028013729896349785,0.9989555638031922,0.04052941104930921,0.08050255667444349,0.0666185766150084,281474982487350,7002229
2024-01-01 00:00:05.820,0.0006327818661062849,-0.00048716718302914457,0.9993159565549599,0.045139595241603506,0.10016983064041801,-0.008131120535795356,281474982487350,7002229
2024-01-01 00:00:05.830,0.002270692857804396,-0.002217609080152015,0.9990731151677138,0.04013213737267121,0.03700468469850127,0.036045261340312544,281474982487350,7002229
2024-01-01 00:00:05.840,0.00018186625505849517,-0.0008420986897213886,0.998693277030788,0.10679930445034894,0.1527661552042685,-0.04339087609123682,281474982487350,7002229
2024-01-01 00:00:05.850,0.0002482205863003361,-0.0012672766883727303,1.0013658566253314,0.12952712338333455,-0.06165120539248453,0.028632585614502184,281474982487350,7002229
2024-01-01 00:00:05.860,-0.0004593608995402441,0.0008261456160405156,0.9979080397049735,0.20055930636183966,0.11399562957847548,-0.024919993574831257,281474982487350,7002229
2024-01-01 00:00:05.870,-0.0008498443694647919,0.000321652659591586,1.0013701389048046,-0.08368421824487218,0.07043598627606378,0.026795154786874345,281474982487350,7002229
2024-01-01 00:00:05.880,0.0008303358165442456,0.0003987128017903442,1.0012460589249201,-0.05734215137672173,-0.06100003767353716,-0.1766941368653625,281474982487350,7002229
2024-01-01 00:00:05.890,-0.0008560838259088672,-0.0003700224658372443,1.000499792675479,0.03611821670416381,0.023268588267797395,0.0487104373361179,281474982487350,7002229
2024-01-01 00:00:05.900,7.156623721939247e-05,-0.0002793502470569217,0.998885492731906,-0.0779090858737785,0.030142957829733304,0.05400031129421959,281474982487350,7002229
2024-01-01 00:00:05.910,-0.0004776574467651167,-0.0003709311036076685,0.9984178248885568,-0.06180150723722207,-0.014203244035668217,0.05289624702758279,281474982487350,7002229
2024-01-01 00:00:05.920,0.00047897982574639204,-8.119318413546972e-05,0.9994515963187365,0.047522958150662986,-0.015293549993787188,-0.09874425108340079,281474982487350,7002229
2024-01-01 00:00:05.930,0.00033366210528694846,0.0008353334353648353,1.00062512045634,0.09008423549798501,-0.15248276316855955,-0.07101307150573316,281474982487350,7002229
2024-01-01 00:00:05.940,0.0010375399442578994,0.0003360754125053465,1.0000030636374406,0.12759279527788633,-0.06892672130011372,-0.08685886104300619,281474982487350,7002229
2024-01-01 00:00:05.950,-0.0005100163988547472,0.0005001128296208667,0.9989565005049053,-0.019261441375760073,-0.023837213218952588,0.032998064033366276,281474982487350,7002229
2024-01-01 00:00:05.960,-0.00026987493529337126,0.0004995589082492027,1.0011482047846565,0.04631529635379707,-0.05725683896634007,0.06582249160972643,281474982487350,7002229
2024-01-01 00:00:05.970,-0.0009787637157823075,0.0008844424373817379,1.0016843833281814,0.02427577358937702,-0.08556640684227335,-0.06965628707267123,281474982487350,7002229
2024-01-01 00:00:05.980,-0.0004442932600761114,0.00028815004154025467,0.9997734008359854,0.0017657445179986055,0.10610913531190147,0.13156127329295503,281474982487350,7002229
2024-01-01 00:00:05.990,0.00037730049304485197,0.00035884807267891875,1.0001093369035974,-0.08160091652080173,-0.010392508664467972,0.13023867662873106,281474982487350,7002229
2024-01-01 00:00:06.000,0.0007569886166453519,0.0011888062411931565,0.9984911513163705,-0.09432110892025215,0.21667417205364328,0.013795882127169645,281474982487350,7002229
2024-01-01 00:00:06.010,-0.0009221653241776255,-0.0006650459180031121,0.999585613283891,0.06666747799559565,0.022274749906626274,0.03708859389871826,281474982487350,7002229
2024-01-01 00:00:06.020,0.0008696059201056602,-0.0008557425799515072,1.000510439978001,-0.08328193798842021,0.10401551926846966,-0.16795504828522198,281474982487350,7002229
2024-01-01 00:00:06.030,0.001355637858804951,-0.0011859215991868559,1.0003548565402578,-0.17769188248270268,-0.020812204496826754,-0.05290398136748117,281474982487350,7002229
2024-01-01 00:00:06.040,0.00041343490322370087,0.00018291456362025594,0.9994923321507903,-0.003176132329018785,-0.06616747659219728,-0.12523595083210895,281474982487350,7002229
2024-01-01 00:00:06.050,0.0018767958125580659,-0.0018537322412191233,0.9997257564915235,0.14552403021497493,0.026284920513579408,-0.0909986374180291,281474982487350,7002229
2024-01-01 00:00:06.060,-0.000773789199103573,0.00046215409605967735,0.9995527892634555,-0.2794850438402242,0.12955160707611477,0.051451884412207605,281474982487350,7002229
2024-01-01 00:00:06.070,-0.0012446547033114171,-0.00010919309450055267,0.9997215352862816,-0.028833027315351215,-0.008907243545439232,0.07560574036680083,281474982487350,7002229
2024-01-01 00:00:06.080,-0.0017787202489042786,0.0011346396998210568,1.0004232348025182,0.06752148653262328,0.04467781837811933,0.07978578646219978,281474982487350,7002229
2024-01-01 00:00:06.090,0.0014960443114891832,-0.0006719173104649906,0.9980324629146309,-0.18234964332148015,0.025756043145239296,0.024169146726205626,281474982487350,7002229
2024-01-01 00:00:06.100,0.0006543656563540578,-0.00020331828541750676,0.9999256504851921,-0.0213332916201082,-0.009800092225981175,0.052337452792242736,281474982487350,7002229
2024-01-01 00:00:06.110,-5.558467091045507e-05,0.0011222033332933688,1.0003499755356258,-0.11394572445525422,-0.004682446541123571,-0.15891334675228708,281474982487350,7002229
2024-01-01 00:00:06.120,0.0002799686263198203,0.0013831356467781525,0.999429515314359,-0.10071781140068858,-0.09984746287202416,-0.12895320754776157,281474982487350,7002229
2024-01-01 00:00:06.130,-0.0011254890472983765,-0.0006801523657518201,0.9995206669560351,-0.04024182077020205,-0.0011088533503246375,-0.02092173453769769,281474982487350,7002229
2024-01-01 00:00:06.140,0.0024457519796168264,0.00018178123258716012,0.9995496055591846,-0.11231478901321701,0.0653293963394331,0.0597486245344554,281474982487350,7002229
2024-01-01 00:00:06.150,0.0001292211819752275,0.00029441897768404815,0.9995209500264628,-0.12063007031518125,0.029571211814369933,-0.04472638052515313,281474982487350,7002229
2024-01-01 00:00:06.160,0.00010939479460489293,0.0003736534056211483,1.0000058837778503,-0.005923175154200424,0.018418052763645405,-0.13607834733201393,281474982487350,7002229
2024-01-01 00:00:06.170,0.0007257666238986923,-0.00026257565931562214,1.0001290027580139,0.2227139060535686,0.07250114462208627,-0.06917626899891313,281474982487350,7002229
2024-01-01 00:00:06.180,0.0004810092317367132,0.0012813833981236348,0.9978994856837662,0.0757743317447856,0.01949349103518832,-0.09334851116617301,281474982487350,7002229
2024-01-01 00:00:06.190,0.00022388402427913137,-0.0018897034836215453,1.0006528803714723,0.10105327670383549,0.0013915938851820373,-0.1724488668316241,281474982487350,7002229
2024-01-01 00:00:06.200,-0.0007904744554453119,-0.00042113023480108404,0.999710001115653,0.07972624384188448,0.07351604069610317,0.22243926311471982,281474982487350,7002229
2024-01-01 00:00:06.210,0.00047146835713599575,0.00044793073277294695,1.0019329631754685,-0.06975136126792172,0.013659961834896778,0.12328715425645881,281474982487350,7002229
2024-01-01 00:00:06.220,0.0018820244964750338,0.0004572248119493437,0.9988083514611013,0.031083222911616044,-0.023659529414244203,-0.19756591397371337,281474982487350,7002229
2024-01-01 00:00:06.230,0.0013454200461549778,0.0013527590306147631,0.9991326854912457,0.10976942609423342,0.04682702551469348,-0.19220514034455874,281474982487350,7002229
2024-01-01 00:00:06.240,0.0015931866266393972,0.0011982253932012869,0.9997970910214168,0.08283374677817912,-0.0035218405567221524,-0.08059890929456427,281474982487350,7002229
2024-01-01 00:00:06.250,-0.0005112156764311852,-0.00028554162530722375,1.000413225449686,0.019455100736838524,-0.028151345718720272,-0.1489333617950285,281474982487350,7002229
2024-01-01 00:00:06.260,-0.000989604820258581,0.0012998712435306045,0.9980492326726285,0.052004649419389384,0.015542222520074388,0.2382618723656168,281474982487350,7002229
2024-01-01 00:00:06.270,-0.00012578692009964816,-0.0007140417437774549,0.9991708999478839,0.24628739651691522,0.016709084592073143,-0.08023198840027554,281474982487350,7002229
2024-01-01 00:00:06.280,5.5724912288694604e-05,0.0009308873827918375,1.0005913201605738,0.08394432171563458,-0.11036247239349846,0.03615403399309269,281474982487350,7002229
2024-01-01 00:00:06.290,0.0010941915184709485,0.0018105224784209933,0.9990518760535675,-0.03151593571976487,0.0333230467300123,-0.050579600703122875,281474982487350,7002229
2024-01-01 00:00:06.300,-0.0016924646297148194,0.0012149441068549692,1.0013700263763763,-0.007403700626459677,0.18465128490851698,-0.1167184416003872,281474982487350,7002229
2024-01-01 00:00:06.310,0.0015295503194606137,0.00010577038352412323,0.9995461164011509,-0.10541513965914469,-0.09796111918085043,0.10473471869423955,281474982487350,7002229
2024-01-01 00:00:06.320,-0.00015800789857898942,-0.00033177877177212225,0.9991006267986581,0.23470359479462966,-0.050257572363848785,0.06548305749108782,281474982487350,7002229
2024-01-01 00:00:06.330,-0.00042688106994742003,-0.0015285912962592864,1.0006102442577895,0.16038697254435438,0.2780026223238948,-0.005956836718201952,281474982487350,7002229
2024-01-01 00:00:06.340,-0.0010121043752601678,0.000310539637914204,1.0016076173868245,0.008321303627211424,-0.08221326883215302,0.2381934731097994,281474982487350,7002229
2024-01-01 00:00:06.350,-0.0016548566718657697,-0.0011152172279709192,1.0004163962587438,0.21808201187667767,0.12863900771630007,0.023505509890864116,281474982487350,7002229
2024-01-01 00:00:06.360,0.0008231705839619145,-0.0007931346636139368,1.0012604293992233,0.06324000449549774,-0.02287061556907334,-0.04564687513048482,281474982487350,7002229
2024-01-01 00:00:06.370,7.331796718840389e-05,-0.0011907458007366716,1.001676635340637,-0.04308464176158178,0.006013999230972239,0.19152730772836726,281474982487350,7002229
2024-01-01 00:00:06.380,-0.001289960899741054,-0.00046039233265665516,0.9990781413200724,0.09064525405197978,-0.013116780705349426,0.04038758253657031,281474982487350,7002229
2024-01-01 00:00:06.390,-0.0012950787720636162,-2.7969414486982293e-05,1.0009383913340595,0.03986434717966514,0.04257006214806662,0.16279196354479483,281474982487350,7002229
2024-01-01 00:00:06.400,-0.00033578469929012824,0.0002736145811657051,0.9984765294906964,0.08378567782763992,-0.15797531764989758,-0.00390885879258319,281474982487350,7002229
2024-01-01 00:00:06.410,0.001669021525289393,-0.0006005066354139633,1.0004249025317864,-0.1369091859656217,0.01862604573981914,-0.3014441105453871,281474982487350,7002229
2024-01-01 00:00:06.420,-0.0002595913513636048,0.0010692837063951833,0.9999286821094852,-0.08103141571972697,-0.04033618493645641,-0.1558753935934609,281474982487350,7002229
2024-01-01 00:00:06.430,-0.0015031429531181062,-0.00020820525798996594,1.001242950203042,0.1488470830123175,-0.18630738949439962,0.10827105335315389,281474982487350,7002229
2024-01-01 00:00:06.440,-0.00024574306408594405,-0.0007877224332655192,1.0011722515129848,0.16931374915640568,0.11208890276892221,-0.058906295581890124,281474982487350,7002229
2024-01-01 00:00:06.450,-0.0002727235697476702,0.00022629226724343637,1.0005697833505345,0.14151127269680547,-0.2107502766661798,0.02533251176026255,281474982487350,7002229
2024-01-01 00:00:06.460,-0.002696886642941572,0.001963552833543816,1.0002984278994829,0.22186469035868575,0.2148446230392711,0.11338473986907467,281474982487350,7002229
2024-01-01 00:00:06.470,-5.429486651781221e-05,0.00033516056653511785,1.000508368676722,0.05773682982138633,0.061695318515420816,0.01794847517437893,281474982487350,7002229
2024-01-01 00:00:06.480,-0.00023093453020867796,-0.0003628556273736071,1.0000617708713766,0.05070833628304308,-0.1360995788777717,-0.08594007902598229,281474982487350,7002229
2024-01-01 00:00:06.490,0.0006962063648134184,-0.0015274613561187041,0.9999388042588921,-0.09132069012238125,0.1338093648017205,-0.0011086706855674062,281474982487350,7002229
2024-01-01 00:00:06.500,0.0018489560949453453,-0.00021941232097207037,1.0014425781722525,-0.058053144084630505,-0.0750379467691763,0.010693190288824855,281474982487350,7002229
2024-01-01 00:00:06.510,0.0011265650295477574,0.0002349281250881156,1.0015628898196782,-0.19882609223095515,-0.07048238828801666,-0.040815556793484614,281474982487350,7002229
2024-01-01 00:00:06.520,-0.0002688886905548305,-0.00038758089125557005,0.9998583408022977,-0.03214860123677068,-0.18009703127692567,-0.13849781367554534,281474982487350,7002229
2024-01-01 00:00:06.530,-0.0011065259087416702,-0.0016653846382409996,1.0002376364030108,-0.2058526088833248,-0.08639628998930726,-0.03554823103347773,281474982487350,7002229
2024-01-01 00:00:06.540,0.0025733598032498606,-0.0008505653895034339,1.0000816552247729,0.10809661708636942,-0.07461687718984611,-0.00928140495262023,281474982487350,7002229
2024-01-01 00:00:06.550,5.9218434014488256e-05,0.0014545384608877577,0.9983883015580628,0.03883988685504527,0.08181460856252093,-0.1443181620062757,281474982487350,7002229
2024-01-01 00:00:06.560,1.3929291912946203e-05,0.0014340010037304609,0.999663564422388,-0.202616924639609,0.11671938661292575,-0.09180912389954188,281474982487350,7002229
2024-01-01 00:00:06.570,-2.412508711000328e-05,-0.0008866391692045981,1.001599704201048,-0.018986369216348206,-0.12407887786442438,-0.07168507128636109,281474982487350,7002229
2024-01-01 00:00:06.580,0.00019808476076785532,0.0006727567871994219,0.9992502241249682,0.19676556223485,0.02705399693578785,-0.18603618486518825,281474982487350,7002229
2024-01-01 00:00:06.590,-0.00014436041192394274,-0.0011785727847701737,1.0021145434623013,-0.012566615083574368,-0.1840254653257505,0.012823567131479908,281474982487350,7002229
2024-01-01 00:00:06.600,-0.0005736620068802362,0.0014043162819949524,1.0011721263095894,-0.09983709436379924,0.027434477488869197,0.023695680166886935,281474982487350,7002229
2024-01-01 00:00:06.610,-0.0005468589412403922,0.0002452358478942364,1.0004014981505462,-0.17855022693052408,0.21620801807409193,-0.05443259765026653,281474982487350,7002229
2024-01-01 00:00:06.620,-3.275327021599839e-05,0.000949641498616534,1.0005608432859765,-0.17556466124438888,-0.17798124288041978,-0.13686153510813007,281474982487350,7002229
2024-01-01 00:00:06.630,-0.000543424771133765,-0.0017150933471825392,0.999082793303665,0.053557996785600165,-0.10146665421668333,0.04069865455455692,281474982487350,7002229
2024-01-01 00:00:06.640,-0.0007128457826771643,0.0006776371019248882,0.9997347712477753,-0.04338726223247445,0.07272752145736214,0.05460797536805502,281474982487350,7002229
2024-01-01 00:00:06.650,0.00010643022769189684,-7.674063684503473e-06,1.0014413991103217,-0.03509941415994384,0.0845194474970161,0.009858233713126704,281474982487350,7002229
2024-01-01 00:00:06.660,-0.0002549772174208552,0.0008519290707908426,0.9993854706608265,-0.04297466634439696,-0.09411167450740054,0.004156161724209905,281474982487350,7002229
2024-01-01 00:00:06.670,0.0015039929885826884,0.0009148677980978497,1.0010611317569489,-0.014023994946474381,0.14735817353580957,0.05939434942883154,281474982487350,7002229
2024-01-01 00:00:06.680,-0.0026509698083930122,6.578468947474945e-05,0.9986229598105629,-0.1227162998703048,-0.08155784324726732,-0.009546866731292574,281474982487350,7002229
2024-01-01 00:00:06.690,0.0010915068519224617,-0.0006008296390959147,0.9988018415875249,0.03161049936893784,0.16734676076029986,-0.09177580421966669,281474982487350,7002229
2024-01-01 00:00:06.700,0.001246085192497629,0.0007796961821794943,1.0019013846655864,-0.14227062437566945,0.046865168804092416,-0.007028400666843893,281474982487350,7002229
2024-01-01 00:00:06.710,-0.0020733902324081496,-6.0154499405127685e-05,0.9999881628537597,-0.07558424580412537,0.127121505203703,-0.03920519438025511,281474982487350,7002229
2024-01-01 00:00:06.720,-0.00034268759408034876,-0.0008727849535276425,0.9994615001130056,0.10108276976651238,0.037082812626546106,-0.007031539571283059,281474982487350,7002229
2024-01-01 00:00:06.730,-0.00037144086599579147,-0.0009201522314576857,1.001362740826999,0.03762049997251888,0.06569641043543294,0.08842663082157606,281474982487350,7002229
2024-01-01 00:00:06.740,-0.0014075116947178212,-0.0014771644163123817,1.0012458215549636,0.06856818462013826,0.07101325265792366,-0.12020784485454164,281474982487350,7002229
2024-01-01 00:00:06.750,-0.0007778166875908753,-0.0005102911595630632,1.0009207545652572,0.21503883928178863,0.11447865426333939,0.017747447501855362,281474982487350,7002229
2024-01-01 00:00:06.760,-0.0011105758454658288,0.0011026920460743784,0.9994301020805879,-0.005965401030449736,-0.003282780015743158,-0.1252585448542296,281474982487350,7002229
2024-01-01 00:00:06.770,0.0017522704434236227,0.00017782979970543426,0.9997130824240623,0.00214602600249777,-0.08999038350854487,-0.09181806771924578,281474982487350,7002229
2024-01-01 00:00:06.780,0.0009356783931474612,-0.0005297677059230407,1.0003116288237248,-0.026432095585034066,-0.00789391270029965,0.15738376346537933,281474982487350,7002229
2024-01-01 00:00:06.790,0.0012715550949941588,0.0008048559381800798,1.0006943993421473,-0.04434141473921474,-0.06674878312409331,0.04573064542739106,281474982487350,7002229
2024-01-01 00:00:06.800,0.0007216720640432349,-0.0008324766217233888,0.9994915164259814,-0.10105908273937865,-0.060207210783756474,0.01609411971428087,281474982487350,7002229
2024-01-01 00:00:06.810,-0.001129051771217229,9.535027433277855e-05,1.0001707371106208,0.00840648111958523,0.16547772398004082,-0.16584718764013867,281474982487350,7002229
2024-01-01 00:00:06.820,-0.0005245202662797736,-0.00017963037272551537,1.0002673913007973,0.03550486065961563,0.06227278907563462,-0.02357402677253787,281474982487350,7002229
2024-01-01 00:00:06.830,0.0004893745612279181,0.0007791306255883524,1.0012867697563752,0.041077033919289616,0.057673748223291445,-0.20727908991177424,281474982487350,7002229
2024-01-01 00:00:06.840,-0.0012221278088919453,-0.0015772283709195008,1.0007544658289351,0.006436382686707808,0.10726435424211256,0.0037252722225978047,281474982487350,7002229
2024-01-01 00:00:06.850,0.0007129984301723881,-0.0008501977458146558,0.9984931983551647,0.09261708048199817,0.06175104927653942,-0.1246963698916295,281474982487350,7002229
2024-01-01 00:00:06.860,-0.00024032539815813485,-0.0016382456590945337,0.9997863696915146,0.002943669074238714,0.18670774948337754,0.05578437435593815,281474982487350,7002229
2024-01-01 00:00:06.870,-0.0003748208075495972,-0.00025959672180927003,0.9990712166300166,-0.0409301888233962,-0.20946443283127844,0.016130391555193923,281474982487350,7002229
2024-01-01 00:00:06.880,0.0007109599682034917,0.0012114275036324304,1.0005680874206118,-0.0926988181974518,-0.09975926117967776,-0.12160927038964156,281474982487350,7002229
2024-01-01 00:00:06.890,0.00044426331148603995,-0.0005054472096535272,1.000923153350505,-0.15489752115779287,-0.0700671848173171,0.038159317645447256,281474982487350,7002229
